"sep=	"
Shimmer_952D_TimestampSync_Unix_CAL	Shimmer_952D_Accel_LN_X_CAL	Shimmer_952D_Accel_LN_Y_CAL	Shimmer_952D_Accel_LN_Z_CAL	Shimmer_952D_Accel_WR_X_CAL	Shimmer_952D_Accel_WR_Y_CAL	Shimmer_952D_Accel_WR_Z_CAL	Shimmer_952D_Gyro_X_CAL	Shimmer_952D_Gyro_Y_CAL	Shimmer_952D_Gyro_Z_CAL	Shimmer_952D_Mag_X_CAL	Shimmer_952D_Mag_Y_CAL	Shimmer_952D_Mag_Z_CAL	
ms	m/(s^2)	m/(s^2)	m/(s^2)	m/(s^2)	m/(s^2)	m/(s^2)	deg/s	deg/s	deg/s	local_flux	local_flux	local_flux	
1.737493043045799E12	0.20275080925642375	0.10843373493975904	9.845401002068469	0.04379348479402512	-0.05998800239952009	9.617485113647476	-6.293258492578443E-5	0.6294517144276959	0.006293258492578444	0.2653673163418291	-1.010494752623688	0.2653673163418291	
1.7374930430507732E12	0.17889777287331507	0.024096385542168676	9.821066086162467	0.04379348479402512	-0.05998800239952009	9.617485113647476	0.15202547858542484	0.5963226768262382	0.11138782292765552	0.2518740629685157	-1.0494752623688155	0.3613193403298351	
1.7374930430557476E12	0.1428772785372065	0.07228915662650603	9.808657688448022	0.05344609418638263	-0.06718656268746251	9.59674840846378	-0.3223009153290066	0.41411297001822095	0.07082660181337681	0.2518740629685157	-1.0494752623688155	0.3613193403298351	
1.7374930430607217E12	0.22732666492386905	0.03614457831325302	9.797453989540806	0.05344609418638263	-0.06718656268746251	9.59674840846378	-0.18388499641859785	0.0828225940036442	0.011776824095619434	0.27436281859070466	-1.010494752623688	0.2773613193403298	
1.737493043065696E12	0.21540014673231472	0.03614457831325302	9.785286531587804	0.078564571693611	-0.04799040191961607	9.611032385296356	0.029707909954550468	0.3644194136160344	0.09199614083898104	0.27436281859070466	-1.010494752623688	0.2773613193403298	
1.7374930430706702E12	0.1913061705877605	0.04819277108433735	9.785045591826359	0.078564571693611	-0.04799040191961607	9.611032385296356	-0.21716710469695558	0.3644194136160344	0.2772005156373653	0.2578710644677661	-1.047976011994003	0.35982008995502246	
1.7374930430756443E12	0.25117970130697775	-0.012048192771084338	9.821788905446803	0.06277197698141007	-0.055188962207558485	9.592348033146585	-0.04696784950354706	0.11595163160510186	0.10260424591366472	0.2578710644677661	-1.047976011994003	0.35982008995502246	
1.7374930430806187E12	0.22684478540097797	-0.03614457831325302	9.845641941829914	0.06277197698141007	-0.055188962207558485	9.592348033146585	-0.12284238810726153	0.6294517144276959	0.03309026555004163	0.27136431784107945	-1.0119940029985006	0.2848575712143928	
1.7374930430855928E12	0.1546833268480381	0.03614457831325302	9.8328721344733	0.04203416182228803	-0.04079184163167366	9.589977821125784	-0.029180939241137502	0.2153387444094749	-0.14469321218027748	0.27136431784107945	-1.0119940029985006	0.2848575712143928	
1.7374930430905671E12	0.20311221889859205	0.03614457831325302	9.809260037851637	0.04203416182228803	-0.04079184163167366	9.589977821125784	0.0628172865683204	0.34785489481530557	-0.15615438424398498	0.24437781109445278	-1.0314842578710643	0.35532233883058467	
1.7374930430955413E12	0.19082429106486942	0.07228915662650603	9.833233544115467	0.051134688125327954	-0.055188962207558485	9.596845270407968	0.04736514768942671	0.2981613384131191	-0.14233406450162975	0.24437781109445278	-1.0314842578710643	0.35532233883058467	
1.7374930431005156E12	0.19082429106486942	0.07228915662650603	9.833233544115467	0.051134688125327954	-0.055188962207558485	9.596845270407968	0.10831120588634856	0.34785489481530557	-0.11136561160575957	0.26686656671664166	-1.0134932533733134	0.2818590704647676	
1.7374930431054897E12	0.20311221889859205	0.024096385542168676	9.809260037851637	0.048318765275252584	-0.05758848230353929	9.62216797180319	0.0789906573937421	0.4969355640218651	-0.24209789863914064	0.26686656671664166	-1.0134932533733134	0.2818590704647676	
1.7374930431104639E12	0.21515920697086915	0.04819277108433735	9.809380507732358	0.048318765275252584	-0.05758848230353929	9.62216797180319	-0.04389197272563188	0.06625807520291535	-0.20498343187785278	0.2623688155922039	-1.0434782608695652	0.3493253373313343	
1.7374930431154382E12	0.23949412287686894	0.08433734939759037	9.785527471349251	0.04859168806753708	-0.03839232153569286	9.608521832188964	-0.10896735401092499	0.3644194136160344	0.17698042406340123	0.2623688155922039	-1.0434782608695652	0.3493253373313343	
1.7374930431204124E12	0.23937365299614616	0.04819277108433735	9.79757445942153	0.04859168806753708	-0.03839232153569286	9.608521832188964	-0.10677219187887807	0.34785489481530557	-0.04253578914128935	0.2698650674662669	-1.0029985007496252	0.28785607196401797	
1.7374930431253867E12	0.2876820751659774	-0.024096385542168676	9.786009350872142	0.055844476111052255	-0.052789442111577684	9.592302753338842	-0.16712337841549335	0.19877422560874605	-0.13299140806781695	0.2698650674662669	-1.0029985007496252	0.28785607196401797	
1.7374930431303608E12	0.2513001711877005	0.04819277108433735	9.809741917374527	0.055844476111052255	-0.052789442111577684	9.592302753338842	-0.16862049429019543	0.5466291204240517	0.01672017940239156	0.24737631184407796	-1.032983508245877	0.34332833583208394	
1.737493043135335E12	0.19118570070703772	0.0963855421686747	9.797092579898637	0.07385718274817457	-0.06238752249550089	9.615454950351086	-0.15473883571123515	0.2153387444094749	0.1599478896533745	0.24737631184407796	-1.032983508245877	0.34332833583208394	
1.7374930431403093E12	0.21515920697086915	0.04819277108433735	9.809380507732358	0.07385718274817457	-0.06238752249550089	9.615454950351086	0.1065564010772358	0.34785489481530557	0.06411486930551757	0.2608695652173913	-1.0014992503748126	0.2893553223388306	
1.7374930431452834E12	0.23901224335397786	0.012048192771084338	9.83371542363836	0.0530742003290435	-0.052789442111577684	9.615343101330733	-0.27723079212735324	0.2650323008116614	0.157994986089074	0.2608695652173913	-1.0014992503748126	0.2893553223388306	
1.7374930431502578E12	0.2513001711877005	0.03614457831325302	9.809741917374527	0.0530742003290435	-0.052789442111577684	9.615343101330733	-0.22793810796422592	0.2981613384131191	-0.1770927257826127	0.2578710644677661	-1.0359820089955023	0.33883058470764615	
1.737493043155232E12	0.21540014673231472	0.0	9.785286531587804	0.05801270346315848	-0.04079184163167366	9.599364826842075	0.10803198738341063	0.2153387444094749	-0.08344376131196674	0.2578710644677661	-1.0359820089955023	0.33883058470764615	
1.737493043160206E12	0.20323268877931483	0.03614457831325302	9.79721304977936	0.05801270346315848	-0.04079184163167366	9.599364826842075	0.034216313901586	0.612887195626967	-0.35884425386457236	0.2698650674662669	-1.0164917541229386	0.29535232383808097	
1.7374930431651804E12	0.20214845985280988	0.060240963855421686	9.905635942429853	0.05533708047368607	-0.052789442111577684	9.617672535207152	-0.2261932398790488	0.3975484512174921	-0.35157953430032485	0.2698650674662669	-1.0164917541229386	0.29535232383808097	
1.7374930431701545E12	0.1791387126347606	-0.012048192771084338	9.796972110017915	0.05533708047368607	-0.052789442111577684	9.617672535207152	-0.2600503463698418	0.5797581580255093	-0.028656021515051644	0.2608695652173913	-1.0299850074962518	0.34332833583208394	
1.737493043175129E12	0.21527967685159194	0.03614457831325302	9.797333519660082	0.07163851024742593	-0.052789442111577684	9.610915134279974	-0.24664382364759044	0.612887195626967	0.1620852744068223	0.2608695652173913	-1.0299850074962518	0.34332833583208394	
1.737493043180103E12	0.20311221889859205	0.012048192771084338	9.809260037851637	0.07163851024742593	-0.052789442111577684	9.610915134279974	-0.1372559857616026	0.4306774888189498	-0.05694353716286235	0.2593703148425787	-1.014992503748126	0.30134932533733133	
1.7374930431850771E12	0.20311221889859205	0.03614457831325302	9.809260037851637	0.05547546110205867	-0.052789442111577684	9.610753503788521	-0.26088303351668773	0.1325161504058307	0.05461269316954435	0.2593703148425787	-1.014992503748126	0.30134932533733133	
1.7374930431900515E12	0.20323268877931483	0.03614457831325302	9.79721304977936	0.05547546110205867	-0.052789442111577684	9.610753503788521	-0.1519504580395376	0.11595163160510186	-0.11888987751637933	0.25487256371814093	-1.0359820089955023	0.35082458770614694	
1.7374930431950256E12	0.21540014673231472	0.04819277108433735	9.785286531587804	0.06457310855675308	-0.052789442111577684	9.617764895487984	0.03206421090659358	0.19877422560874605	-0.14363395436533016	0.25487256371814093	-1.0359820089955023	0.35082458770614694	
1.7374930432E12	0.21552061661303748	0.060240963855421686	9.773239543515526	0.06457310855675308	-0.052789442111577684	9.617764895487984	-0.13814829325206246	0.5797581580255093	0.032287211883123744	0.2773613193403298	-1.0224887556221889	0.2983508245877061	
1.737493043204974E12	0.2513001711877005	0.060240963855421686	9.809741917374527	0.06245100808077103	-0.0647870425914817	9.60839647817854	0.06485793436299486	0.41411297001822095	-0.36021916371143164	0.2773613193403298	-1.0224887556221889	0.2983508245877061	
1.7374930432099482E12	0.22732666492386905	0.03614457831325302	9.797453989540806	0.06245100808077103	-0.0647870425914817	9.60839647817854	0.04560703063900206	0.3312903760145768	0.033477640540835706	0.26686656671664166	-1.0374812593703149	0.33883058470764615	
1.7374930432149226E12	0.20335315866003761	0.060240963855421686	9.785166061707082	0.06937419067861056	-0.04559088182363527	9.608657671612196	-0.15461413154566966	0.4306774888189498	0.1474774730968256	0.26686656671664166	-1.0374812593703149	0.33883058470764615	
1.7374930432198967E12	0.1913061705877605	0.024096385542168676	9.785045591826359	0.06937419067861056	-0.04559088182363527	9.608657671612196	-0.1359614117232953	0.6460162332284247	-0.186400940993596	0.25037481259370314	-1.0134932533733134	0.2983508245877061	
1.737493043224871E12	0.21540014673231472	0.012048192771084338	9.785286531587804	0.07426944578494687	-0.04799040191961607	9.594841798512473	0.12335279761411506	0.11595163160510186	-0.08413121623539638	0.25037481259370314	-1.0134932533733134	0.2983508245877061	
1.7374930432298452E12	0.21515920697086915	0.024096385542168676	9.809380507732358	0.07426944578494687	-0.04799040191961607	9.594841798512473	-0.060698305986446814	0.3975484512174921	-0.05574367394337381	0.2773613193403298	-1.0284857571214392	0.3373313343328336	
1.7374930432348193E12	0.2029917490178693	0.03614457831325302	9.821307025923913	0.058110235104040314	-0.06718656268746251	9.594488244797985	-0.2602997547009728	0.14908066920655955	-0.003715188401953862	0.2773613193403298	-1.0284857571214392	0.3373313343328336	
1.7374930432397937E12	0.14323868817937482	0.060240963855421686	9.77251672423119	0.058110235104040314	-0.06718656268746251	9.594488244797985	-0.15373341689980138	0.3975484512174921	0.05940600850999869	0.2518740629685157	-1.0134932533733134	0.3043478260869565	
1.7374930432447678E12	0.19106523082631494	0.10843373493975904	9.809139567970913	0.07164330832800173	-0.07678464307138572	9.610675230251182	0.13510437788298005	0.612887195626967	0.2721043250251184	0.2518740629685157	-1.0134932533733134	0.3043478260869565	
1.7374930432497422E12	0.2396145927575917	0.060240963855421686	9.773480483276973	0.07164330832800173	-0.07678464307138572	9.610675230251182	-0.16652519451387487	0.06625807520291535	-0.1928097982296627	0.2788605697151424	-1.025487256371814	0.3328335832083958	
1.7374930432547163E12	0.22672431552025518	0.024096385542168676	9.85768892990219	0.059725419750713715	-0.05758848230353929	9.629202453572859	-7.659472042384305E-4	0.34785489481530557	0.07659472042384304	0.2788605697151424	-1.025487256371814	0.3328335832083958	
1.7374930432596904E12	0.21479779732870086	-0.03614457831325302	9.84552147194919	0.059725419750713715	-0.05758848230353929	9.629202453572859	0.015422328707086739	0.34785489481530557	-0.010839302561660158	0.2353823088455772	-1.010494752623688	0.3103448275862069	
1.7374930432646648E12	0.20275080925642375	0.0	9.845401002068469	0.06009635399193766	-0.06718656268746251	9.61065574151166	-4.767919773648519E-4	0.38098393241676326	0.047679197736485185	0.2353823088455772	-1.010494752623688	0.3103448275862069	
1.737493043269639E12	0.19118570070703772	0.012048192771084338	9.797092579898637	0.06009635399193766	-0.06718656268746251	9.61065574151166	-0.10719930023656467	0.23190326321020371	1.7504662737074378E-4	0.2863568215892054	-1.0374812593703149	0.3268365817091454	
1.7374930432746133E12	0.17901824275403783	0.024096385542168676	9.809019098090191	0.03921967839638543	-0.050389922015596875	9.615228551312367	0.06079651222151723	0.0828225940036442	0.04592305043633163	0.2863568215892054	-1.0374812593703149	0.3268365817091454	
1.7374930432795874E12	0.1308302904649294	0.03614457831325302	9.8085372185673	0.06937515029472574	-0.050389922015596875	9.608609690806437	-0.03154386467580438	0.44724200761967864	0.09159933128641039	0.22638680659670163	-1.0344827586206897	0.31634182908545727	
1.7374930432845615E12	0.16685078480103796	0.07228915662650603	9.820945616281744	0.06937610991084092	-0.055188962207558485	9.608561710000679	0.1207040291938865	0.28159681961239025	0.180745625787461	0.22638680659670163	-1.0344827586206897	0.31634182908545727	
1.737493043289536E12	0.20311221889859205	0.08433734939759037	9.809260037851637	0.06678986182527141	-0.052789442111577684	9.62240067317061	-0.2154040192845631	0.28159681961239025	0.10089197439811728	0.3148425787106447	-1.0314842578710643	0.32233883058470764	
1.73749304329451E12	0.17889777287331507	0.0	9.821066086162467	0.06678986182527141	-0.052789442111577684	9.62240067317061	-0.16990678772522308	0.24846778201093256	0.14534952290515435	0.3148425787106447	-1.0314842578710643	0.32233883058470764	
1.7374930432994844E12	0.1549242666094836	0.08433734939759037	9.808778158328746	0.04868921970841894	-0.0647870425914817	9.603645250144872	-0.16889971279313334	0.41411297001822095	0.04464202969618439	0.22338830584707645	-1.0314842578710643	0.31634182908545727	
1.7374930433044585E12	0.16660984503959242	0.04819277108433735	9.8450395924263	0.04868921970841894	-0.0647870425914817	9.603645250144872	-0.18289117045175568	0.38098393241676326	-0.08760577258859717	0.22338830584707645	-1.0314842578710643	0.31634182908545727	
1.7374930433094329E12	0.17901824275403783	0.04819277108433735	9.809019098090191	0.058015582311504	-0.055188962207558485	9.5992208844248	-0.07701128606333747	0.1822097068080172	0.04416076559867827	0.3103448275862069	-1.0134932533733134	0.3268365817091454	
1.737493043314407E12	0.23913271323470062	-0.04819277108433735	9.821668435566082	0.058015582311504	-0.055188962207558485	9.5992208844248	-0.001060070793079834	0.3644194136160344	0.10600707930798339	0.3103448275862069	-1.0134932533733134	0.3268365817091454	
1.737493043319381E12	0.14311821829865207	0.03614457831325302	9.784563712303468	0.05330531451772211	-0.055188962207558485	9.603787391896805	-0.5192900302777348	0.3644194136160344	-0.1383782892249889	0.20089955022488756	-1.032983508245877	0.3268365817091454	
1.7374930433243555E12	0.19094476094559218	0.024096385542168676	9.82118655604319	0.05330531451772211	-0.055188962207558485	9.603787391896805	-0.07613222753812515	0.1656451880072884	-0.043745086922554466	0.20089955022488756	-1.032983508245877	0.3268365817091454	
1.7374930433293296E12	0.1428772785372065	0.03614457831325302	9.808657688448022	0.05529239302173464	-0.05998800239952009	9.619906907804724	3.89017582599942E-4	0.4969355640218651	-0.038901758259994194	0.3298350824587706	-1.0119940029985006	0.31784107946026985	
1.737493043334304E12	0.21479779732870086	0.04819277108433735	9.84552147194919	0.05529239302173464	-0.05998800239952009	9.619906907804724	-0.10413336018258514	0.28159681961239025	-0.30641895877058173	0.3298350824587706	-1.0119940029985006	0.31784107946026985	
1.737493043339278E12	0.2150387370901464	0.060240963855421686	9.821427495804635	0.04180544667389738	-0.050389922015596875	9.601413578545316	-0.1059030700776014	0.4306774888189498	-0.12944796926895707	0.1934032983508246	-1.050974512743628	0.3328335832083958	
1.7374930433442522E12	0.20311221889859205	0.07228915662650603	9.809260037851637	0.04180544667389738	-0.050389922015596875	9.601413578545316	9.98623557263635E-5	0.46380652642040743	-0.009986235572636348	0.1934032983508246	-1.050974512743628	0.3328335832083958	
1.7374930433492266E12	0.2270857251624235	0.04819277108433735	9.821547965685358	0.05990896763909537	-0.052789442111577684	9.620025059153777	-0.09190167569504343	0.3644194136160344	0.0018061606222594762	0.3373313343328336	-1.0074962518740629	0.31334332833583206	
1.7374930433542007E12	0.21515920697086915	0.08433734939759037	9.809380507732358	0.05990896763909537	-0.052789442111577684	9.620025059153777	0.09433465331362971	0.1656451880072884	-0.24510392248088864	0.3373313343328336	-1.0074962518740629	0.31334332833583206	
1.737493043359175E12	0.21527967685159194	0.0963855421686747	9.797333519660082	0.0672506507784558	-0.050389922015596875	9.59936122551139	0.21299472247152987	0.41411297001822095	0.14003770690520737	0.17991004497751123	-1.0539730134932532	0.3493253373313343	
1.7374930433641492E12	0.25142064106842327	0.024096385542168676	9.797694929302251	0.0672506507784558	-0.050389922015596875	9.59936122551139	0.030412580694519055	0.6294517144276959	0.021529066842122288	0.17991004497751123	-1.0539730134932532	0.3493253373313343	
1.7374930433691233E12	0.275273677451532	0.012048192771084338	9.822029845208249	0.06716031625843777	-0.05998800239952009	9.603877951512292	-0.2008292828102258	0.3312903760145768	0.17481189511140063	0.33433283358320837	-0.9970014992503747	0.29685157421289354	
1.7374930433740977E12	0.20335315866003761	0.04819277108433735	9.785166061707082	0.06716031625843777	-0.05998800239952009	9.603877951512292	0.12568922511828687	0.14908066920655955	-0.31777396665257757	0.33433283358320837	-0.9970014992503747	0.29685157421289354	
1.7374930433790718E12	0.21576155637448302	0.07228915662650603	9.749145567370974	0.06522176367083735	-0.06718656268746251	9.585332139783768	-0.3058085791049045	0.2981613384131191	-0.047013452449831745	0.19040479760119938	-1.073463268365817	0.3403298350824588	
1.7374930433840461E12	0.2513001711877005	0.024096385542168676	9.809741917374527	0.06522176367083735	-0.06718656268746251	9.585332139783768	-0.0910110243252395	0.23190326321020371	-0.08725897635813244	0.19040479760119938	-1.073463268365817	0.3403298350824588	
1.7374930433890203E12	0.2629857496178093	0.04819277108433735	9.846003351472083	0.05330723374995244	-0.0647870425914817	9.603691430285288	0.0028534614936491266	0.71227430843134	-0.2853461493649126	0.3568215892053973	-0.9775112443778111	0.29385307346326833	
1.7374930433939944E12	0.1913061705877605	0.060240963855421686	9.785045591826359	0.05330723374995244	-0.0647870425914817	9.603691430285288	0.015116612273653745	0.4803710452211363	0.01973234078163939	0.3568215892053973	-0.9775112443778111	0.29385307346326833	
1.7374930433989688E12	0.20311221889859205	0.03614457831325302	9.809260037851637	0.06004974730775589	-0.0647870425914817	9.612986075720752	-0.1360596179583657	0.1656451880072884	-0.1765803174865538	0.17541229385307347	-1.0764617691154423	0.3658170914542728	
1.7374930434039429E12	0.16697125468176072	0.0	9.808898628209468	0.06004974730775589	-0.0647870425914817	9.612986075720752	0.061657353419514206	0.24846778201093256	-0.040161069363365234	0.34782608695652173	-0.9535232383808095	0.26686656671664166	
1.7374930434089172E12	0.19118570070703772	-0.012048192771084338	9.797092579898637	0.053257268409367564	-0.04559088182363527	9.606189697314532	-0.197632014108057	0.5300646016233228	-0.1449149751054774	0.34782608695652173	-0.9535232383808095	0.26686656671664166	
1.7374930434138914E12	0.2029917490178693	0.03614457831325302	9.821307025923913	0.053257268409367564	-0.04559088182363527	9.606189697314532	-0.07746323623086321	0.31472585721384794	0.08935578235125091	0.1829085457271364	-1.077961019490255	0.3778110944527736	
1.7374930434188655E12	0.19106523082631494	0.03614457831325302	9.809139567970913	0.0601410414438891	-0.05998800239952009	9.60842136891409	-0.12370157318460254	0.44724200761967864	0.11900877328414433	0.1829085457271364	-1.077961019490255	0.3778110944527736	
1.7374930434238398E12	0.20311221889859205	0.04819277108433735	9.809260037851637	0.0601410414438891	-0.05998800239952009	9.60842136891409	-0.1366876120317911	0.5963226768262382	-0.11378091014401304	0.3328335832083958	-0.9730134932533733	0.2563718140929535	
1.737493043428814E12	0.2150387370901464	0.024096385542168676	9.821427495804635	0.05067533859631629	-0.0647870425914817	9.61981274685855	-0.07763928013676288	0.612887195626967	0.10696017294121905	0.3328335832083958	-0.9730134932533733	0.2563718140929535	
1.7374930434337883E12	0.22720619504314626	-0.024096385542168676	9.809500977613082	0.05067533859631629	-0.0647870425914817	9.61981274685855	-0.1395791643005269	0.2650323008116614	0.17537431672956547	0.20239880059970014	-1.077961019490255	0.3913043478260869	
1.7374930434387625E12	0.19094476094559218	0.024096385542168676	9.82118655604319	0.06466584211705903	-0.055188962207558485	9.613128217472683	-0.10954732058532808	0.31472585721384794	0.2349770815037111	0.20239880059970014	-1.077961019490255	0.3913043478260869	
1.7374930434437366E12	0.22720619504314626	-0.04819277108433735	9.809500977613082	0.06466584211705903	-0.055188962207558485	9.613128217472683	-0.3660499665618577	0.513500082822594	-0.1484489793425607	0.32233883058470764	-0.9730134932533733	0.24137931034482757	
1.737493043448711E12	0.19106523082631494	-0.024096385542168676	9.809139567970913	0.04665937298468528	-0.07678464307138572	9.58966414522301	-0.2590151173866011	0.46380652642040743	-0.1321789198391225	0.32233883058470764	-0.9730134932533733	0.24137931034482757	
1.737493043453685E12	0.1428772785372065	0.024096385542168676	9.808657688448022	0.04665937298468528	-0.07678464307138572	9.58966414522301	-0.10880455907027282	0.19877422560874605	0.16070092999818644	0.20689655172413793	-1.0764617691154423	0.41829085457271364	
1.7374930434586594E12	0.10673631432037518	0.04819277108433735	9.808296278805853	0.05293390046844057	-0.04319136172765446	9.62235809436088	-0.10400699989636372	0.4803710452211363	-0.3190549873927248	0.20689655172413793	-1.0764617691154423	0.41829085457271364	
1.7374930434636335E12	0.1791387126347606	0.024096385542168676	9.796972110017915	0.05293390046844057	-0.04319136172765446	9.62235809436088	0.015124892876933454	0.3975484512174921	0.018904280453668543	0.3328335832083958	-0.9820089955022488	0.21139430284857572	
1.7374930434686077E12	0.14299774841792928	0.060240963855421686	9.796610700375746	0.0579689756273222	-0.052789442111577684	9.60155121863389	-0.061158536757252246	0.612887195626967	-0.009720596862830324	0.3328335832083958	-0.9820089955022488	0.21139430284857572	
1.737493043473582E12	0.20335315866003761	0.0	9.785166061707082	0.0579689756273222	-0.052789442111577684	9.60155121863389	-0.10528832496942352	0.1325161504058307	-0.1909224800867445	0.21739130434782608	-1.077961019490255	0.42728635682158916	
1.7374930434785562E12	0.16697125468176072	0.03614457831325302	9.808898628209468	0.062447649424367924	-0.04799040191961607	9.608564410998694	0.031005796234169686	0.5466291204240517	-0.037792487122940935	0.21739130434782608	-1.077961019490255	0.42728635682158916	
1.7374930434835305E12	0.19154711034920602	0.012048192771084338	9.760951615681805	0.062447649424367924	-0.04799040191961607	9.608564410998694	0.06252813134144682	0.31472585721384794	-0.12723886155662714	0.3073463268365817	-0.9670164917541229	0.20389805097451275	
1.7374930434885046E12	0.23937365299614616	-0.07228915662650603	9.79757445942153	0.046150537923146356	-0.0695860827834433	9.615105898299957	-0.13783264009469384	0.34785489481530557	7.218961462591793E-4	0.3073463268365817	-0.9670164917541229	0.20389805097451275	
1.7374930434934788E12	0.2270857251624235	-0.024096385542168676	9.821547965685358	0.046150537923146356	-0.0695860827834433	9.615105898299957	-2.8154051151008825E-5	0.28159681961239025	0.002815405115100883	0.2128935532233883	-1.0719640179910044	0.43178410794602695	
1.7374930434984531E12	0.20323268877931483	0.024096385542168676	9.79721304977936	0.06235731490434984	-0.05758848230353929	9.613081136999597	-0.19833502872736966	0.24846778201093256	-0.0746135131742128	0.2128935532233883	-1.0719640179910044	0.43178410794602695	
1.7374930435034272E12	0.21527967685159194	0.024096385542168676	9.797333519660082	0.06235731490434984	-0.05758848230353929	9.613081136999597	-0.21366080732004192	0.3975484512174921	-0.07342922205400065	0.3028485757121439	-0.9790104947526237	0.20089955022488756	
1.7374930435084016E12	0.22768807456603735	0.04819277108433735	9.761313025323973	0.060143440484177024	-0.07198560287942411	9.608301416899694	-0.04511815070067575	0.6294517144276959	-0.08236563437346625	0.3028485757121439	-0.9790104947526237	0.20089955022488756	
1.7374930435133757E12	0.20311221889859205	-0.03614457831325302	9.809260037851637	0.060143440484177024	-0.07198560287942411	9.608301416899694	-0.19788307855984394	0.11595163160510186	-0.11980852992678545	0.22638680659670163	-1.062968515742129	0.4497751124437781	
1.73749304351835E12	0.14263633877576098	0.03614457831325302	9.832751664592577	0.0714977305787654	-0.04079184163167366	9.617954117713003	-0.2880200127218389	0.38098393241676326	-0.29447652260936813	0.22638680659670163	-1.062968515742129	0.4497751124437781	
1.7374930435233242E12	0.1428772785372065	0.08433734939759037	9.808657688448022	0.0714977305787654	-0.04079184163167366	9.617954117713003	0.03132310551219427	0.2981613384131191	-0.06952341492539967	0.2983508245877061	-0.9835082458770614	0.1934032983508246	
1.7374930435282983E12	0.19058335130342385	0.0963855421686747	9.857327520260021	0.06235731490434984	-0.05758848230353929	9.613081136999597	-0.21526441003309416	0.34785489481530557	0.08693104925122086	0.2983508245877061	-0.9835082458770614	0.1934032983508246	
1.7374930435332727E12	0.20311221889859205	0.0	9.809260037851637	0.06235731490434984	-0.05758848230353929	9.613081136999597	0.01583121973755798	0.6460162332284247	-0.05172840560878439	0.22788605697151423	-1.0689655172413792	0.45577211394302847	
1.7374930435382468E12	0.1308302904649294	0.060240963855421686	9.8085372185673	0.05792284875119802	-0.052789442111577684	9.6038575624401	-0.0461070083055501	0.28159681961239025	0.016520126113967852	0.22788605697151423	-1.0689655172413792	0.45577211394302847	
1.7374930435432212E12	0.1787773029925923	0.12048192771084337	9.833113074234745	0.05792284875119802	-0.052789442111577684	9.6038575624401	-0.047742077311065195	0.5466291204240517	0.1800270266654786	0.2833583208395802	-0.9970014992503747	0.19040479760119938	
1.7374930435481953E12	0.22696525528170075	0.0	9.833594953757636	0.04638069249570978	-0.06718656268746251	9.603598169671786	-0.045555195782298004	0.612887195626967	-0.03866112621124114	0.2833583208395802	-0.9970014992503747	0.19040479760119938	
1.7374930435531694E12	0.28695925588164073	-0.060240963855421686	9.858291279305805	0.04638069249570978	-0.06718656268746251	9.603598169671786	-0.15387799451323816	0.38098393241676326	0.07386376985367761	0.2353823088455772	-1.0689655172413792	0.4332833583208396	
1.7374930435581438E12	0.2029917490178693	0.024096385542168676	9.821307025923913	0.062220373700150045	-0.0647870425914817	9.619928197209589	0.07695829020234735	0.34785489481530557	-0.03886117949966485	0.2353823088455772	-1.0689655172413792	0.4332833583208396	
1.737493043563118E12	0.14323868817937482	0.060240963855421686	9.77251672423119	0.062220373700150045	-0.0647870425914817	9.619928197209589	-0.12354043436460634	0.2981613384131191	0.10289489128452371	0.28785607196401797	-0.9955022488755622	0.19790104947526235	
1.7374930435680923E12	0.20287127913714653	0.060240963855421686	9.83335401399619	0.06004830788358309	-0.05758848230353929	9.613058046929389	-0.39694761983702126	0.34785489481530557	-0.12147078812022696	0.28785607196401797	-0.9955022488755622	0.19790104947526235	
1.7374930435730664E12	0.14311821829865207	0.04819277108433735	9.784563712303468	0.06004830788358309	-0.05758848230353929	9.613058046929389	-0.10704975426116006	0.19877422560874605	-0.01477955091309069	0.2368815592203898	-1.0494752623688155	0.43928035982008995	
1.7374930435780405E12	0.23901224335397786	0.04819277108433735	9.83371542363836	0.05095066042888874	-0.05758848230353929	9.606046655229928	-0.15079052489073141	0.2153387444094749	-0.23488319239699906	0.2368815592203898	-1.0494752623688155	0.43928035982008995	
1.737493043583015E12	0.20311221889859205	0.08433734939759037	9.809260037851637	0.05095066042888874	-0.05758848230353929	9.606046655229928	-0.2907802363423855	0.19877422560874605	-0.018454160554715198	0.27586206896551724	-0.992503748125937	0.19490254872563717	
1.737493043587989E12	0.20323268877931483	0.03614457831325302	9.79721304977936	0.055472582253713154	-0.03839232153569286	9.610897446205797	-0.2278233405225961	0.612887195626967	-0.1885694699455966	0.27586206896551724	-0.992503748125937	0.19490254872563717	
1.7374930435929634E12	0.23913271323470062	0.060240963855421686	9.821668435566082	0.055472582253713154	-0.03839232153569286	9.610897446205797	0.10758997393982056	0.24846778201093256	-0.03924241695295911	0.24437781109445278	-1.055472263868066	0.43928035982008995	
1.7374930435979375E12	0.2270857251624235	0.08433734939759037	9.821547965685358	0.04619330614286746	-0.052789442111577684	9.612967487313902	-0.1051901187343531	0.612887195626967	-0.2007431035937867	0.24437781109445278	-1.055472263868066	0.43928035982008995	
1.7374930436029116E12	0.22732666492386905	0.060240963855421686	9.797453989540806	0.04619330614286746	-0.052789442111577684	9.612967487313902	-0.011987244518378572	0.3975484512174921	-0.3326691163091565	0.2848575712143928	-0.9985007496251874	0.21589205397301348	
1.737493043607886E12	0.26358809902142316	0.012048192771084338	9.785768411110697	0.06720644313456195	-0.05998800239952009	9.601571607706083	-0.0321287996121753	0.44724200761967864	0.15009282492350276	0.2848575712143928	-0.9985007496251874	0.21589205397301348	
1.73749304361286E12	0.23937365299614616	0.060240963855421686	9.79757445942153	0.06720644313456195	-0.05998800239952009	9.601571607706083	-0.19776665499755816	0.41411297001822095	-0.1314508861553635	0.2518740629685157	-1.0269865067466266	0.4332833583208396	
1.7374930436178345E12	0.19118570070703772	0.10843373493975904	9.797092579898637	0.05109096028949167	-0.06718656268746251	9.599031662199781	-0.10736375129787276	0.41411297001822095	0.016620152758179702	0.2518740629685157	-1.0269865067466266	0.4332833583208396	
1.7374930436228086E12	0.20323268877931483	0.04819277108433735	9.79721304977936	0.05109096028949167	-0.06718656268746251	9.599031662199781	-0.015795946087413346	0.46380652642040743	0.048201040594320656	0.2833583208395802	-1.0014992503748126	0.21589205397301348	
1.7374930436277827E12	0.3112941717876405	-0.12048192771084337	9.834438242922696	0.055477380334289006	-0.06238752249550089	9.610657542177004	0.046195277816684865	0.2981613384131191	-0.02534707722744501	0.2833583208395802	-1.0014992503748126	0.21589205397301348	
1.737493043632757E12	0.2996085933575317	-0.04819277108433735	9.798176808825142	0.055477380334289006	-0.06238752249550089	9.610657542177004	0.015837844220181748	0.5797581580255093	-0.05239085387116107	0.25337331334332835	-1.0434782608695652	0.40629685157421286	
1.7374930436377312E12	0.20347362854076037	0.024096385542168676	9.773119073634804	0.06009251552747699	-0.04799040191961607	9.610847664734695	-0.014471561877299057	0.38098393241676326	-0.08423738041710804	0.25337331334332835	-1.0434782608695652	0.40629685157421286	
1.7374930436427056E12	0.20323268877931483	-0.012048192771084338	9.79721304977936	0.06009251552747699	-0.04799040191961607	9.610847664734695	-0.16541494498474693	0.6625807520291536	-0.30383475114245734	0.2788605697151424	-1.0	0.21889055472263869	
1.7374930436476797E12	0.2270857251624235	-0.024096385542168676	9.821547965685358	0.06466680173317421	-0.05998800239952009	9.613080236666924	-0.04493548231215231	0.2650323008116614	-0.10063247322581108	0.2788605697151424	-1.0	0.21889055472263869	
1.7374930436526538E12	0.21491826720942364	0.024096385542168676	9.833474483876913	0.06466680173317421	-0.05998800239952009	9.613080236666924	0.04692810260780446	0.28159681961239025	-0.09862955633940465	0.2593703148425787	-1.0464767616191903	0.3958020989505247	
1.7374930436576282E12	0.2150387370901464	0.024096385542168676	9.821427495804635	0.07362798779172633	-0.0695860827834433	9.626914698173497	-0.2766574500355739	0.38098393241676326	0.1006607769111408	0.2593703148425787	-1.0464767616191903	0.3958020989505247	
1.7374930436626023E12	0.22720619504314626	0.060240963855421686	9.809500977613082	0.07362798779172633	-0.0695860827834433	9.626914698173497	-0.031106819594182128	0.46380652642040743	0.047894823124185276	0.26836581709145424	-1.0089955022488755	0.24437781109445278	
1.7374930436675767E12	0.20335315866003761	0.03614457831325302	9.785166061707082	0.06023137596390715	-0.050389922015596875	9.603904642913186	-0.17034217668618937	0.2153387444094749	0.18888841900178532	0.26836581709145424	-1.0089955022488755	0.24437781109445278	
1.7374930436725508E12	0.17901824275403783	0.024096385542168676	9.809019098090191	0.06023137596390715	-0.050389922015596875	9.603904642913186	-0.09204625330848021	0.34785489481530557	0.016263921965938403	0.24887556221889054	-1.050974512743628	0.38830584707646176	
1.737493043677525E12	0.1787773029925923	0.03614457831325302	9.833113074234745	0.05755383374220441	-0.052789442111577684	9.622308312889778	0.0444404730075721	0.2981613384131191	0.15013340368383213	0.24887556221889054	-1.050974512743628	0.38830584707646176	
1.7374930436824993E12	0.21527967685159194	0.03614457831325302	9.797333519660082	0.05755383374220441	-0.052789442111577684	9.622308312889778	-0.07760284548233216	0.24846778201093256	0.10331670749814732	0.2788605697151424	-1.0119940029985006	0.25037481259370314	
1.7374930436874734E12	0.09529167565171193	0.060240963855421686	9.747940868563747	0.050856007636352424	-0.04559088182363527	9.610779294856744	-0.22969125665268275	0.28159681961239025	-0.001777856936929753	0.2788605697151424	-1.0119940029985006	0.25037481259370314	
1.7374930436924478E12	0.23925318311542337	0.012048192771084338	9.809621447493805	0.050856007636352424	-0.04559088182363527	9.610779294856744	-0.16596013302537524	0.2650323008116614	-0.249315947079625	0.25337331334332835	-1.0374812593703149	0.38830584707646176	
1.7374930436974219E12	0.16697125468176072	0.024096385542168676	9.808898628209468	0.06036975659227975	-0.050389922015596875	9.596985611494556	-0.016095038038222573	0.5300646016233228	0.07811023567524351	0.25337331334332835	-1.0374812593703149	0.38830584707646176	
1.737493043702396E12	0.17865683311186953	0.024096385542168676	9.845160062307023	0.06036975659227975	-0.050389922015596875	9.596985611494556	-0.13636864663311057	0.3312903760145768	-0.14567745001206592	0.26686656671664166	-1.0044977511244377	0.272863568215892	
1.7374930437073704E12	0.20250986949497818	0.024096385542168676	9.869494978213021	0.050860805716928276	-0.0695860827834433	9.61053939082795	-0.08971479416627623	0.4306774888189498	-0.21688199225446028	0.26686656671664166	-1.0044977511244377	0.272863568215892	
1.7374930437123445E12	0.21515920697086915	0.03614457831325302	9.809380507732358	0.050860805716928276	-0.0695860827834433	9.61053939082795	0.0146679743474399	0.5797581580255093	0.06459613340302368	0.24887556221889054	-1.0434782608695652	0.3748125937031484	
1.7374930437173188E12	0.17901824275403783	0.03614457831325302	9.809019098090191	0.05750578763384989	-0.04319136172765446	9.624710618307507	-0.21540070704325123	0.24846778201093256	0.10056075026692894	0.24887556221889054	-1.0434782608695652	0.3748125937031484	
1.737493043722293E12	0.2150387370901464	-0.024096385542168676	9.821427495804635	0.05750578763384989	-0.04319136172765446	9.624710618307507	-0.05982918418517014	0.4803710452211363	-0.14265585407104153	0.27136431784107945	-1.0	0.2623688155922039	
1.737493043727267E12	0.22744713480459183	0.012048192771084338	9.785407001468528	0.048872767596800565	-0.05998800239952009	9.594467855725792	-0.22911625844024747	0.38098393241676326	-0.059277678180457115	0.27136431784107945	-1.0	0.2623688155922039	
1.7374930437322415E12	0.15552661601309747	0.04819277108433735	9.748543217967361	0.048872767596800565	-0.05998800239952009	9.594467855725792	-0.27607582734051483	0.41411297001822095	0.04249850740523676	0.24587706146926536	-1.04047976011994	0.3583208395802099	
1.7374930437372156E12	0.23937365299614616	0.012048192771084338	9.79757445942153	0.046238953210934075	-0.050389922015596875	9.61068513391057	-0.12310338928298409	0.31472585721384794	0.059190383122298594	0.24587706146926536	-1.04047976011994	0.3583208395802099	
1.73749304374219E12	0.25105923142625497	0.0	9.833835893519081	0.046238953210934075	-0.050389922015596875	9.61068513391057	-0.13857043324778126	0.41411297001822095	0.07450121145500133	0.2833583208395802	-1.0119940029985006	0.27586206896551724	
1.737493043747164E12	0.19094476094559218	0.012048192771084338	9.82118655604319	0.06462163447316518	-0.0647870425914817	9.615338599667377	-0.07615706934796428	0.41411297001822095	-0.04126090593864192	0.2833583208395802	-1.0119940029985006	0.27586206896551724	
1.7374930437521384E12	0.1550447364902064	0.03614457831325302	9.79673117025647	0.06462163447316518	-0.0647870425914817	9.615338599667377	-0.043464864367945284	0.1822097068080172	-0.24769426764651287	0.24437781109445278	-1.0344827586206897	0.3583208395802099	
1.7374930437571125E12	0.1787773029925923	0.04819277108433735	9.833113074234745	0.05759756157804069	-0.04079184163167366	9.620121921097965	-0.030678055115839587	0.5631936392247805	0.005018375289931014	0.24437781109445278	-1.0344827586206897	0.3583208395802099	
1.7374930437620867E12	0.20311221889859205	0.04819277108433735	9.809260037851637	0.05759756157804069	-0.04079184163167366	9.620121921097965	-0.01417412604714577	0.3312903760145768	-0.11398096343243674	0.2698650674662669	-0.9985007496251874	0.280359820089955	
1.737493043767061E12	0.22744713480459183	-0.024096385542168676	9.785407001468528	0.057968016011207046	-0.04799040191961607	9.601599199439649	-0.10795862295817935	0.513500082822594	0.0761073187888371	0.2698650674662669	-0.9985007496251874	0.280359820089955	
1.7374930437720352E12	0.2270857251624235	0.060240963855421686	9.821547965685358	0.057968016011207046	-0.04799040191961607	9.601599199439649	0.18253742651930038	0.23190326321020371	0.12298016583412764	0.2518740629685157	-1.0419790104947526	0.34782608695652173	
1.7374930437770095E12	0.2633471592599776	0.024096385542168676	9.80986238725525	0.07159238337130172	-0.052789442111577684	9.613221478086185	8.244065435662515E-4	0.5300646016233228	-0.08244065435662513	0.2518740629685157	-1.0419790104947526	0.34782608695652173	
1.7374930437819836E12	0.13070982058420663	0.10843373493975904	9.820584206639577	0.07159238337130172	-0.052789442111577684	9.613221478086185	-0.09263781272747491	0.41411297001822095	0.07541986386540746	0.2773613193403298	-1.0179910044977512	0.2863568215892054	
1.7374930437869578E12	0.17901824275403783	0.04819277108433735	9.809019098090191	0.05131871582176714	-0.052789442111577684	9.587643885586006	-0.18301918685863305	0.19877422560874605	-0.07480413190085994	0.2773613193403298	-1.0179910044977512	0.2863568215892054	
1.7374930437919321E12	0.17901824275403783	0.03614457831325302	9.809019098090191	0.05131871582176714	-0.052789442111577684	9.587643885586006	-0.3374357449298757	0.11595163160510186	0.0529159937532733	0.25037481259370314	-1.0464767616191903	0.3583208395802099	
1.7374930437969062E12	0.11902424215409783	0.060240963855421686	9.784322772542023	0.055616720578776785	-0.06718656268746251	9.603690529952617	-0.07527469858144006	0.3644194136160344	-0.12949798259106302	0.25037481259370314	-1.0464767616191903	0.3583208395802099	
1.7374930438018806E12	0.14311821829865207	0.04819277108433735	9.784563712303468	0.055616720578776785	-0.06718656268746251	9.603690529952617	-0.19688428423103393	0.3644194136160344	-0.21968796280778458	0.27136431784107945	-1.0134932533733134	0.2908545727136432	
1.7374930438068547E12	0.1787773029925923	0.03614457831325302	9.833113074234745	0.050856007636352424	-0.04559088182363527	9.610779294856744	-0.20183470162165956	0.14908066920655955	0.27535377625477647	0.27136431784107945	-1.0134932533733134	0.2908545727136432	
1.7374930438118289E12	0.14239539901431542	0.03614457831325302	9.85684564073713	0.050856007636352424	-0.04559088182363527	9.610779294856744	-0.12076364953750039	0.31472585721384794	-0.17478359142607092	0.25487256371814093	-1.0374812593703149	0.3493253373313343	
1.7374930438168032E12	0.2266038456395324	0.07228915662650603	9.869735917974467	0.04845714590362518	-0.05758848230353929	9.61524894038456	-0.04319889483025489	0.44724200761967864	-0.27429122141555234	0.25487256371814093	-1.0374812593703149	0.3493253373313343	
1.7374930438217773E12	0.21491826720942364	0.060240963855421686	9.833474483876913	0.04845714590362518	-0.05758848230353929	9.61524894038456	-0.02992370075619275	0.3312903760145768	-0.07041706067475283	0.2638680659670165	-1.0044977511244377	0.2893553223388306	
1.7374930438267517E12	0.21479779732870086	0.060240963855421686	9.84552147194919	0.06231166783628325	-0.05998800239952009	9.615363490402927	0.13789441167533353	0.4969355640218651	-0.006899054210229627	0.2638680659670165	-1.0044977511244377	0.2893553223388306	
1.7374930438317258E12	0.22696525528170075	0.024096385542168676	9.833594953757636	0.06231166783628325	-0.05998800239952009	9.615363490402927	-0.3056606892501558	0.28159681961239025	-0.061802437924699014	0.2578710644677661	-1.0449775112443778	0.3403298350824588	
1.7374930438367E12	0.22720619504314626	0.04819277108433735	9.809500977613082	0.055612882114316115	-0.04799040191961607	9.60388245317565	-0.12237222061252044	0.31472585721384794	-0.013926483924066878	0.2578710644677661	-1.0449775112443778	0.3403298350824588	
1.7374930438416743E12	0.2150387370901464	0.08433734939759037	9.821427495804635	0.055612882114316115	-0.04799040191961607	9.60388245317565	-0.18565801855492597	0.2650323008116614	0.18907903772843246	0.2608695652173913	-1.0014992503748126	0.29685157421289354	
1.7374930438466484E12	0.23901224335397786	0.060240963855421686	9.83371542363836	0.06425070023194124	-0.055188962207558485	9.633885311728571	-0.0911837559898273	0.4969355640218651	-0.06998580989935263	0.2608695652173913	-1.0014992503748126	0.29685157421289354	
1.7374930438516228E12	0.25105923142625497	0.04819277108433735	9.833835893519081	0.06425070023194124	-0.055188962207558485	9.633885311728571	-0.06070327434841464	0.44724200761967864	-0.0552468377465913	0.2578710644677661	-1.0359820089955023	0.34332833583208394	
1.737493043856597E12	0.2270857251624235	0.0963855421686747	9.821547965685358	0.07163851024742593	-0.052789442111577684	9.610915134279974	0.05930105246747109	0.41411297001822095	0.195469025840946	0.2578710644677661	-1.0359820089955023	0.34332833583208394	
1.737493043861571E12	0.14299774841792928	0.1566265060240964	9.796610700375746	0.07163851024742593	-0.052789442111577684	9.610915134279974	-0.13606293019967758	0.19877422560874605	-0.17624909335536548	0.2653673163418291	-1.0134932533733134	0.29985007496251875	
1.7374930438665454E12	0.25154111094914605	0.04819277108433735	9.785647941229973	0.046241352251222	-0.06238752249550089	9.610565181896174	-0.12149978656993188	0.3644194136160344	-0.10116988818292294	0.2653673163418291	-1.0134932533733134	0.29985007496251875	
1.7374930438715195E12	0.275273677451532	0.024096385542168676	9.822029845208249	0.046241352251222	-0.06238752249550089	9.610565181896174	0.07842393978458653	0.31472585721384794	-0.18542613772358413	0.2638680659670165	-1.0359820089955023	0.3403298350824588	
1.737493043876494E12	0.14299774841792928	0.024096385542168676	9.796610700375746	0.04628603970317344	-0.055188962207558485	9.608330809298602	-0.30508734715837643	0.3975484512174921	-0.1191366471026322	0.2638680659670165	-1.0359820089955023	0.3403298350824588	
1.737493043881468E12	0.20323268877931483	0.012048192771084338	9.79721304977936	0.04628603970317344	-0.055188962207558485	9.608330809298602	-0.21424077389444504	0.34785489481530557	-0.015432564613690795	0.2653673163418291	-1.014992503748126	0.3058470764617691	
1.7374930438864421E12	0.2029917490178693	0.0	9.821307025923913	0.04670118158829123	-0.055188962207558485	9.587573715042712	-0.1822880181881694	0.19877422560874605	-0.1479209989472254	0.2653673163418291	-1.014992503748126	0.3058470764617691	
1.7374930438914165E12	0.19082429106486942	0.024096385542168676	9.833233544115467	0.04670118158829123	-0.055188962207558485	9.587573715042712	-0.07978641476978748	0.14908066920655955	0.32167363624367873	0.26836581709145424	-1.0449775112443778	0.34782608695652173	
1.7374930438963906E12	0.20323268877931483	0.012048192771084338	9.79721304977936	0.05547977937457693	-0.07438512297540491	9.610537590162608	-0.23291999164731442	0.3975484512174921	0.3210956425262375	0.26836581709145424	-1.0449775112443778	0.34782608695652173	
1.737493043901365E12	0.19082429106486942	0.012048192771084338	9.833233544115467	0.05547977937457693	-0.07438512297540491	9.610537590162608	0.04430417599741501	0.19877422560874605	0.16376310469954022	0.25037481259370314	-1.0119940029985006	0.3028485757121439	
1.737493043906339E12	0.19082429106486942	0.012048192771084338	9.833233544115467	0.05986236095491354	-0.050389922015596875	9.622355393362865	-0.07629502247877729	0.3312903760145768	-0.027465592857339675	0.25037481259370314	-1.0119940029985006	0.3028485757121439	
1.7374930439113132E12	0.21527967685159194	0.04819277108433735	9.797333519660082	0.05986236095491354	-0.050389922015596875	9.622355393362865	0.027944824542157985	0.44724200761967864	0.26830468207822905	0.2653673163418291	-1.0284857571214392	0.34782608695652173	
1.7374930439162876E12	0.1913061705877605	0.024096385542168676	9.785045591826359	0.0740868575126804	-0.05758848230353929	9.603971212125794	0.04399680344332608	0.34785489481530557	0.19450036010843394	0.2653673163418291	-1.0284857571214392	0.34782608695652173	
1.7374930439212617E12	0.20311221889859205	0.04819277108433735	9.809260037851637	0.0740868575126804	-0.05758848230353929	9.603971212125794	-0.03139928706236759	0.46380652642040743	0.07714156994273147	0.2578710644677661	-1.0194902548725637	0.30134932533733133	
1.737493043926236E12	0.23925318311542337	-0.012048192771084338	9.809621447493805	0.05547450148594352	-0.04799040191961607	9.61080148459428	-0.26248829235039595	0.09938711280437303	0.21513857654036006	0.2578710644677661	-1.0194902548725637	0.30134932533733133	
1.7374930439312102E12	0.22744713480459183	0.024096385542168676	9.785407001468528	0.05547450148594352	-0.04799040191961607	9.61080148459428	-0.16948630385016022	0.4306774888189498	0.10330113539887094	0.280359820089955	-1.0269865067466266	0.3403298350824588	
1.7374930439361843E12	0.1428772785372065	0.024096385542168676	9.808657688448022	0.04665553452022461	-0.05758848230353929	9.589856068446045	-0.38456804549473095	0.41411297001822095	0.17196534579774697	0.280359820089955	-1.0269865067466266	0.3403298350824588	
1.7374930439411587E12	0.1425158688950382	0.0963855421686747	9.844798652664855	0.04665553452022461	-0.05758848230353929	9.589856068446045	-0.49040983910806246	0.23190326321020371	0.036389730101805635	0.24587706146926536	-1.0209895052473763	0.3148425787106447	
1.7374930439461328E12	0.20275080925642375	0.060240963855421686	9.845401002068469	0.06009491456776492	-0.05998800239952009	9.6107277127203	-0.18329509312025913	0.033129037601457675	-0.04721350573825545	0.2848575712143928	-1.0359820089955023	0.33883058470764615	
1.7374930439511072E12	0.2509387615455322	0.012048192771084338	9.84588288159136	0.06009491456776492	-0.05998800239952009	9.6107277127203	-0.1674125336423669	0.1656451880072884	-0.1040758853804591	0.2848575712143928	-1.0359820089955023	0.33883058470764615	
1.7374930439560813E12	0.1792591825154834	0.012048192771084338	9.784925121945637	0.05099678730501295	-0.05758848230353929	9.603740311423717	0.0023016489703970365	0.38098393241676326	-0.2301648970397036	0.22938530734632684	-1.0299850074962518	0.3103448275862069	
1.7374930439610557E12	0.2874411354045318	0.04819277108433735	9.810103327016696	0.05099678730501295	-0.05758848230353929	9.603740311423717	-0.13825643621106853	0.19877422560874605	0.04310150778373094	0.22938530734632684	-1.0299850074962518	0.3103448275862069	
1.7374930439660298E12	0.1546833268480381	0.060240963855421686	9.8328721344733	0.0485493996558736	-0.05758848230353929	9.61063625277214	0.029706253833894525	0.38098393241676326	0.09216175290457522	0.29985007496251875	-1.0269865067466266	0.3268365817091454	
1.737493043971004E12	0.19106523082631494	0.024096385542168676	9.809139567970913	0.0485493996558736	-0.05758848230353929	9.61063625277214	0.029119662776867658	0.3975484512174921	0.15082085860726177	0.29985007496251875	-1.0269865067466266	0.3268365817091454	
1.7374930439759783E12	0.21552061661303748	0.03614457831325302	9.773239543515526	0.05760044042638621	-0.055188962207558485	9.61997797868069	-0.060573601820881326	0.612887195626967	-0.06821409049992269	0.22038980509745126	-1.0299850074962518	0.31634182908545727	
1.7374930439809524E12	0.2513001711877005	0.04819277108433735	9.809741917374527	0.05760044042638621	-0.055188962207558485	9.61997797868069	-0.1683098094947946	0.3644194136160344	-0.014348300137690497	0.22038980509745126	-1.0299850074962518	0.31634182908545727	
1.7374930439859268E12	0.22720619504314626	0.0	9.809500977613082	0.07644439044985926	-0.0695860827834433	9.601568006375397	-0.2460472958666279	0.4969355640218651	0.10243249631057073	0.3073463268365817	-1.0179910044977512	0.3298350824587706	
1.737493043990901E12	0.22744713480459183	0.03614457831325302	9.785407001468528	0.07644439044985926	-0.0695860827834433	9.601568006375397	9.540790710995656E-4	0.6957097896306111	-0.09540790710995654	0.3073463268365817	-1.0179910044977512	0.3298350824587706	
1.737493043995875E12	0.2150387370901464	0.024096385542168676	9.821427495804635	0.05533708047368607	-0.052789442111577684	9.617672535207152	-0.061565771667067545	0.2981613384131191	0.03100289411869974	0.21739130434782608	-1.0389805097451275	0.31634182908545727	
1.7374930440008494E12	0.1308302904649294	0.03614457831325302	9.8085372185673	0.05533708047368607	-0.052789442111577684	9.617672535207152	-0.3656112653595795	0.513500082822594	-0.19231909957038001	0.21739130434782608	-1.0389805097451275	0.31634182908545727	
1.7374930440058235E12	0.14299774841792928	0.04819277108433735	9.796610700375746	0.05122502264534601	-0.04559088182363527	9.592328544407065	-6.346185560491748E-4	0.4969355640218651	0.06346185560491746	0.3193403298350824	-1.0194902548725637	0.31634182908545727	
1.7374930440107979E12	0.2150387370901464	-0.060240963855421686	9.821427495804635	0.05122502264534601	-0.04559088182363527	9.592328544407065	-0.03183798826464578	0.46380652642040743	0.12101169017055076	0.3193403298350824	-1.0194902548725637	0.31634182908545727	
1.737493044015772E12	0.20287127913714653	0.0	9.83335401399619	0.04638021268765219	-0.0647870425914817	9.603622160074664	0.013491479992074286	0.6460162332284247	0.18224556893958513	0.19790104947526235	-1.0449775112443778	0.3298350824587706	
1.737493044020746E12	0.2753941473322547	0.012048192771084338	9.809982857135973	0.04638021268765219	-0.0647870425914817	9.603622160074664	-0.047153830133382396	0.513500082822594	0.1212023088971979	0.19790104947526235	-1.0449775112443778	0.3298350824587706	
1.7374930440257205E12	0.19118570070703772	0.024096385542168676	9.797092579898637	0.057785427738940603	-0.05758848230353929	9.61072861305297	-0.12105114864371803	0.2650323008116614	-0.14603368080430723	0.34782608695652173	-0.992503748125937	0.31334332833583206	
1.7374930440306946E12	0.20323268877931483	0.012048192771084338	9.79721304977936	0.057785427738940603	-0.05758848230353929	9.61072861305297	0.043689430889237144	0.4969355640218651	0.22523761551732766	0.34782608695652173	-0.992503748125937	0.31334332833583206	
1.737493044035669E12	0.26322668937925486	-0.03614457831325302	9.821909375327527	0.05307755898544661	-0.0695860827834433	9.615175168510579	-0.04555022742033018	0.5631936392247805	-0.03915796240802365	0.19040479760119938	-1.0524737631184407	0.32533733133433285	
1.737493044040643E12	0.23913271323470062	0.0	9.821668435566082	0.05307755898544661	-0.0695860827834433	9.615175168510579	-0.07645450517811757	0.46380652642040743	-0.011517322923313224	0.19040479760119938	-1.0524737631184407	0.32533733133433285	
1.7374930440456172E12	0.13107123022637496	0.060240963855421686	9.784443242422746	0.06235683509629228	-0.055188962207558485	9.613105127402475	0.028835475911961905	0.31472585721384794	0.1792395450978371	0.3403298350824588	-0.9985007496251874	0.2983508245877061	
1.7374930440505916E12	0.19106523082631494	0.060240963855421686	9.809139567970913	0.06235683509629228	-0.055188962207558485	9.613105127402475	0.01644265260442397	0.38098393241676326	-0.11287169229538348	0.3403298350824588	-0.9985007496251874	0.2983508245877061	
1.7374930440555657E12	0.16685078480103796	0.060240963855421686	9.820945616281744	0.050762794267988826	-0.04079184163167366	9.615439963274921	-0.03067143063321582	0.4969355640218651	0.0043559270275543354	0.17091454272863568	-1.0794602698650675	0.34332833583208394	
1.73749304406054E12	0.22696525528170075	0.07228915662650603	9.833594953757636	0.050762794267988826	-0.04079184163167366	9.615439963274921	-0.21247603236139662	0.24846778201093256	-0.19190671791853295	0.17091454272863568	-1.0794602698650675	0.34332833583208394	
1.7374930440655142E12	0.20323268877931483	0.04819277108433735	9.79721304977936	0.05552110817012526	-0.050389922015596875	9.608471150385192	-0.1685923402390444	0.2650323008116614	0.013904774287290676	0.34632683658170915	-0.9790104947526237	0.2818590704647676	
1.7374930440704883E12	0.22732666492386905	0.060240963855421686	9.797453989540806	0.05552110817012526	-0.050389922015596875	9.608471150385192	-0.1220847215063028	0.3644194136160344	-0.04267639454583056	0.34632683658170915	-0.9790104947526237	0.2818590704647676	
1.7374930440754626E12	0.2270857251624235	0.04819277108433735	9.821547965685358	0.06725113058651341	-0.052789442111577684	9.59933723510851	-0.48939448357269305	0.31472585721384794	-0.06514582343513518	0.17241379310344826	-1.0704647676161918	0.3538230884557721	
1.7374930440804368E12	0.20335315866003761	0.0963855421686747	9.785166061707082	0.06725113058651341	-0.052789442111577684	9.59933723510851	8.244065435662515E-4	0.5300646016233228	-0.08244065435662513	0.17241379310344826	-1.0704647676161918	0.3538230884557721	
1.7374930440854111E12	0.20347362854076037	0.060240963855421686	9.773119073634804	0.04610153219867666	-0.055188962207558485	9.617556184523442	-0.10560894648876	0.41411297001822095	-0.15886032815309745	0.34632683658170915	-0.9625187406296851	0.2698650674662669	
1.7374930440903853E12	0.17901824275403783	0.03614457831325302	9.809019098090191	0.04610153219867666	-0.055188962207558485	9.617556184523442	-0.0013541943819212379	0.38098393241676326	0.13541943819212376	0.34632683658170915	-0.9625187406296851	0.2698650674662669	
1.7374930440953594E12	0.20323268877931483	0.060240963855421686	9.79721304977936	0.05094730177248563	-0.04079184163167366	9.606214588050083	0.16882021900164815	0.38098393241676326	-0.03669265054766425	0.1829085457271364	-1.0869565217391304	0.3733133433283358	
1.7374930441003337E12	0.19118570070703772	0.13253012048192772	9.797092579898637	0.05094730177248563	-0.04079184163167366	9.606214588050083	-4.637137836636748E-5	0.46380652642040743	0.004637137836636748	0.1829085457271364	-1.0869565217391304	0.3733133433283358	
1.7374930441053079E12	0.22744713480459183	0.04819277108433735	9.785407001468528	0.058109755295982723	-0.0647870425914817	9.594512235200865	-0.10327748734655601	0.4969355640218651	-0.39200624237349607	0.3403298350824588	-0.9580209895052474	0.2518740629685157	
1.7374930441102822E12	0.2874411354045318	0.024096385542168676	9.810103327016696	0.058109755295982723	-0.0647870425914817	9.594512235200865	-0.07511852812341169	0.2650323008116614	-0.1451150283939011	0.3403298350824588	-0.9580209895052474	0.2518740629685157	
1.7374930441152563E12	0.2513001711877005	0.024096385542168676	9.809741917374527	0.07412962573240153	-0.04079184163167366	9.60183280113974	-0.2130709040217032	0.34785489481530557	-0.13241955188787555	0.18590704647676162	-1.0854572713643178	0.38080959520239877	
1.7374930441202305E12	0.20347362854076037	0.024096385542168676	9.773119073634804	0.07412962573240153	-0.04079184163167366	9.60183280113974	0.0924369270117361	0.1325161504058307	-0.055331292291526765	0.18590704647676162	-1.0854572713643178	0.38080959520239877	
1.7374930441252048E12	0.20347362854076037	0.04819277108433735	9.773119073634804	0.05542885441787687	-0.050389922015596875	9.613083837997612	0.07506222002110967	0.2981613384131191	0.15074583862410287	0.3298350824587706	-0.9730134932533733	0.2338830584707646	
1.737493044130179E12	0.22720619504314626	0.03614457831325302	9.809500977613082	0.05542885441787687	-0.050389922015596875	9.613083837997612	0.25965023105902013	0.4969355640218651	0.06866755259721885	0.3298350824587706	-0.9730134932533733	0.2338830584707646	
1.7374930441351533E12	0.21515920697086915	-0.012048192771084338	9.809380507732358	0.06965239135952855	-0.052789442111577684	9.5947476375663	0.07638494811056802	0.23190326321020371	0.018473029678268346	0.2083958020989505	-1.0749625187406298	0.4077961019490255	
1.7374930441401274E12	0.22720619504314626	0.012048192771084338	9.809500977613082	0.06965239135952855	-0.052789442111577684	9.5947476375663	0.01264388775932485	0.34785489481530557	0.26700479221452866	0.2083958020989505	-1.0749625187406298	0.4077961019490255	
1.7374930441451016E12	0.19082429106486942	0.012048192771084338	9.833233544115467	0.06236163317686813	-0.07918416316736653	9.612865223373683	-0.09263781272747491	0.41411297001822095	0.07541986386540746	0.32083958020989506	-0.9670164917541229	0.22638680659670163	
1.737493044150076E12	0.17889777287331507	0.04819277108433735	9.821066086162467	0.06236163317686813	-0.07918416316736653	9.612865223373683	0.10434964610059728	0.4803710452211363	0.2847903669693674	0.32083958020989506	-0.9670164917541229	0.22638680659670163	
1.73749304415505E12	0.21491826720942364	0.04819277108433735	9.833474483876913	0.0578305949989496	-0.052789442111577684	9.60847025005252	-0.15403085272995468	0.44724200761967864	0.08914959152532739	0.20689655172413793	-1.0764617691154423	0.41379310344827586	
1.7374930441600244E12	0.19118570070703772	-0.024096385542168676	9.797092579898637	0.0578305949989496	-0.052789442111577684	9.60847025005252	-0.2289683685854988	0.3644194136160344	-0.07406666365532437	0.20689655172413793	-1.0764617691154423	0.41379310344827586	
1.7374930441649985E12	0.1791387126347606	0.024096385542168676	9.796972110017915	0.04637637422319152	-0.04559088182363527	9.6038140832977	-0.06288353139455807	0.31472585721384794	0.16277886686775178	0.3118440779610195	-0.9700149925037481	0.20689655172413793	
1.7374930441699727E12	0.20287127913714653	0.012048192771084338	9.83335401399619	0.04637637422319152	-0.04559088182363527	9.6038140832977	-0.3969525881989891	0.3975484512174921	-0.12097395192344446	0.3118440779610195	-0.9700149925037481	0.20689655172413793	
1.737493044174947E12	0.19106523082631494	0.0	9.809139567970913	0.050902614320534195	-0.04799040191961607	9.608448960647655	-0.18406600868646536	0.4306774888189498	0.02987805088237009	0.20539730134932532	-1.08095952023988	0.43178410794602695	
1.7374930441799211E12	0.17853636323114674	-0.024096385542168676	9.8572070503793	0.050902614320534195	-0.04799040191961607	9.608448960647655	-0.10870138447323459	0.6294517144276959	0.15038347029436175	0.20539730134932532	-1.08095952023988	0.43178410794602695	
1.7374930441848955E12	0.23901224335397786	0.060240963855421686	9.83371542363836	0.05312032720516771	-0.052789442111577684	9.613036757524524	-0.4144470309932133	0.2981613384131191	0.09707675935195156	0.31334332833583206	-0.9775112443778111	0.19490254872563717	
1.7374930441898696E12	0.2270857251624235	-0.012048192771084338	9.821547965685358	0.05312032720516771	-0.052789442111577684	9.613036757524524	-0.014762373224828578	0.3644194136160344	-0.05515624566415602	0.31334332833583206	-0.9775112443778111	0.19490254872563717	
1.737493044194844E12	0.20311221889859205	0.03614457831325302	9.809260037851637	0.07155057476769575	-0.07438512297540491	9.615311908266483	-0.15170601807037443	0.5963226768262382	-0.1433338744326946	0.21589205397301348	-1.077961019490255	0.4422788605697151	
1.737493044199818E12	0.21527967685159194	0.03614457831325302	9.797333519660082	0.07155057476769575	-0.07438512297540491	9.615311908266483	0.12214980532825438	0.44724200761967864	0.036168012350671776	0.21589205397301348	-1.077961019490255	0.4422788605697151	
1.7374930442047922E12	0.20335315866003761	0.04819277108433735	9.785166061707082	0.0647590554854226	-0.05998800239952009	9.608467549054504	0.15290122486932528	0.612887195626967	0.023813194537611125	0.3043478260869565	-0.9895052473763118	0.19640179910044978	
1.7374930442097666E12	0.19082429106486942	0.10843373493975904	9.833233544115467	0.0647590554854226	-0.05998800239952009	9.608467549054504	-0.24429414717817108	0.513500082822594	-0.07288237253511222	0.3043478260869565	-0.9895052473763118	0.19640179910044978	
1.7374930442147407E12	0.20275080925642375	0.024096385542168676	9.845401002068469	0.06933142245888949	-0.06238752249550089	9.61079608259825	-0.21352451030988484	0.4969355640218651	-0.08705892306970874	0.2143928035982009	-1.0689655172413792	0.4452773613193403	
1.737493044219715E12	0.21467732744797807	0.04819277108433735	9.857568460021467	0.06933142245888949	-0.06238752249550089	9.61079608259825	-0.1992223678558617	0.34785489481530557	0.01412039967499077	0.2143928035982009	-1.0689655172413792	0.4452773613193403	
1.7374930442246892E12	0.19082429106486942	0.03614457831325302	9.833233544115467	0.055844476111052255	-0.052789442111577684	9.592302753338842	-0.12062404028603142	0.38098393241676326	-0.18874451657296734	0.2908545727136432	-0.9910044977511244	0.19490254872563717	
1.7374930442296633E12	0.21479779732870086	0.012048192771084338	9.84552147194919	0.055844476111052255	-0.052789442111577684	9.592302753338842	-0.09438764917461985	0.3644194136160344	0.25040350857990207	0.2908545727136432	-0.9910044977511244	0.19490254872563717	
1.7374930442346377E12	0.23949412287686894	-0.060240963855421686	9.785527471349251	0.04882808014484913	-0.06718656268746251	9.596702228323364	-0.13637030275376652	0.34785489481530557	-0.14551183794647177	0.22938530734632684	-1.065967016491754	0.43928035982008995	
1.7374930442396118E12	0.21527967685159194	0.0	9.797333519660082	0.04882808014484913	-0.06718656268746251	9.596702228323364	-0.19936528934864253	0.31472585721384794	0.028412548953075527	0.22938530734632684	-1.065967016491754	0.43928035982008995	
1.7374930442445862E12	0.13095076034565217	0.024096385542168676	9.796490230495024	0.052982906192910295	-0.05758848230353929	9.619907808137395	-0.1702058796760323	0.31472585721384794	0.17525871798607723	0.2818590704647676	-0.9955022488755622	0.18590704647676162	
1.7374930442495603E12	0.16697125468176072	0.08433734939759037	9.808898628209468	0.052982906192910295	-0.05758848230353929	9.619907808137395	-0.02931558013063864	0.09938711280437303	-0.13122912323016359	0.2818590704647676	-0.9955022488755622	0.18590704647676162	
1.7374930442545344E12	0.20287127913714653	0.04819277108433735	9.83335401399619	0.05311888778099497	-0.04559088182363527	9.613108728733161	0.10771136586407416	0.4969355640218651	-0.05138160937831966	0.23238380809595202	-1.055472263868066	0.4422788605697151	
1.7374930442595088E12	0.2751532075708092	0.0	9.834076833280527	0.05311888778099497	-0.04559088182363527	9.613108728733161	-0.2457415794331949	0.3644194136160344	0.07186085296727118	0.23238380809595202	-1.055472263868066	0.4422788605697151	
1.737493044264483E12	0.2513001711877005	0.0	9.809741917374527	0.055844955919109845	-0.055188962207558485	9.592278762935964	-0.3498318804787256	0.2153387444094749	-0.23886401950875896	0.27586206896551724	-0.992503748125937	0.1934032983508246	
1.7374930442694573E12	0.16721219444320629	0.024096385542168676	9.784804652064913	0.055844955919109845	-0.055188962207558485	9.592278762935964	-0.015031655003830855	0.1325161504058307	-0.028228067763928208	0.27586206896551724	-0.992503748125937	0.1934032983508246	
1.7374930442744314E12	0.1792591825154834	0.060240963855421686	9.784925121945637	0.06724729212205269	-0.033593281343731254	9.599529158331544	-0.10763800143884286	0.23190326321020371	0.04404516685519003	0.24437781109445278	-1.0599700149925038	0.4302848575712144	
1.7374930442794055E12	0.2270857251624235	0.024096385542168676	9.821547965685358	0.06724729212205269	-0.033593281343731254	9.599529158331544	-0.09089128852164184	0.4969355640218651	-0.09923255671789882	0.24437781109445278	-1.0599700149925038	0.4302848575712144	
1.73749304428438E12	0.21527967685159194	-0.024096385542168676	9.797333519660082	0.07403689217209553	-0.03839232153569286	9.60646947915504	-0.12342401080232056	0.5963226768262382	0.09125253505594566	0.27586206896551724	-1.0074962518740629	0.20539730134932532	
1.737493044289354E12	0.20311221889859205	0.0	9.809260037851637	0.07403689217209553	-0.03839232153569286	9.60646947915504	0.06324108268469512	0.4969355640218651	-0.19853399588145673	0.27586206896551724	-1.0074962518740629	0.20539730134932532	
1.7374930442943284E12	0.1546833268480381	0.024096385542168676	9.8328721344733	0.055752702166861456	-0.055188962207558485	9.596891450548384	0.04791696021267881	0.6294517144276959	-0.19751531682683876	0.24737631184407796	-1.055472263868066	0.41829085457271364	
1.7374930442993025E12	0.21467732744797807	0.04819277108433735	9.857568460021467	0.055752702166861456	-0.055188962207558485	9.596891450548384	0.15320197294079044	0.5300646016233228	-0.0062616126089059115	0.24737631184407796	-1.055472263868066	0.41829085457271364	
1.7374930443042766E12	0.20263033937570096	0.024096385542168676	9.857447990140745	0.05307468013710109	-0.055188962207558485	9.615319110927855	0.015865998271332758	0.2981613384131191	-0.055206258986261955	0.27436281859070466	-1.0134932533733134	0.20389805097451275	
1.737493044309251E12	0.2150387370901464	0.04819277108433735	9.821427495804635	0.05307468013710109	-0.055188962207558485	9.615319110927855	-0.10750832891130956	0.3975484512174921	0.03107791410185863	0.27436281859070466	-1.0134932533733134	0.20389805097451275	
1.737493044314225E12	0.22720619504314626	0.07228915662650603	9.809500977613082	0.05321354057353128	-0.05758848230353929	9.608376089106345	-0.23146096654769902	0.4306774888189498	0.1751931325646949	0.239880059970015	-1.047976011994003	0.41379310344827586	
1.7374930443191995E12	0.2396145927575917	0.08433734939759037	9.773480483276973	0.05321354057353128	-0.05758848230353929	9.608376089106345	-0.07718070548661339	0.41411297001822095	0.06110270792626974	0.239880059970015	-1.047976011994003	0.41379310344827586	
1.7374930443241736E12	0.22732666492386905	0.0963855421686747	9.797453989540806	0.039402746476709494	-0.04319136172765446	9.606075147296165	-0.21452496075935076	0.2650323008116614	0.012986121876884547	0.26686656671664166	-0.9970014992503747	0.22788605697151423	
1.7374930443291477E12	0.20287127913714653	0.03614457831325302	9.83335401399619	0.039402746476709494	-0.04319136172765446	9.606075147296165	0.029573269065049326	0.24846778201093256	0.10546022978909496	0.26686656671664166	-0.9970014992503747	0.22788605697151423	
1.737493044334122E12	0.2270857251624235	0.024096385542168676	9.821547965685358	0.04873438696842797	-0.05998800239952009	9.601386887144422	-0.24441057074045686	0.2153387444094749	-0.06124001630653419	0.24737631184407796	-1.0389805097451275	0.4017991004497751	
1.7374930443390962E12	0.2513001711877005	0.08433734939759037	9.809741917374527	0.04873438696842797	-0.05998800239952009	9.601386887144422	-0.15461744378698153	0.46380652642040743	0.14780869722801393	0.24737631184407796	-1.0389805097451275	0.4017991004497751	
1.7374930443440706E12	0.1795001222769289	0.08433734939759037	9.760831145801083	0.055013232724701516	-0.04799040191961607	9.633864922656379	-0.10748017486015855	0.11595163160510186	0.028262508986757747	0.27136431784107945	-0.9940029985007496	0.239880059970015	
1.7374930443490447E12	0.23973506263831446	0.024096385542168676	9.761433495204697	0.055013232724701516	-0.04799040191961607	9.633864922656379	0.0012498587805969109	0.6625807520291536	-0.12498587805969108	0.27136431784107945	-0.9940029985007496	0.239880059970015	
1.7374930443540188E12	0.2997290632382545	0.024096385542168676	9.786129820752864	0.04864357264035232	-0.06718656268746251	9.605927603548205	-0.015910713529043184	0.14908066920655955	0.05967778475730453	0.2563718140929535	-1.047976011994003	0.4002998500749625	
1.7374930443589932E12	0.20287127913714653	0.0	9.83335401399619	0.04864357264035232	-0.06718656268746251	9.605927603548205	0.06003553337924663	0.38098393241676326	0.12202093466339216	0.2563718140929535	-1.047976011994003	0.4002998500749625	
1.7374930443639673E12	0.19154711034920602	0.0	9.760951615681805	0.05778734697117094	-0.06718656268746251	9.610632651441453	0.2885088926601653	0.5797581580255093	0.2455885287767376	0.29385307346326833	-1.0224887556221889	0.2368815592203898	
1.7374930443689417E12	0.07095675974571217	0.024096385542168676	9.771793904946854	0.05778734697117094	-0.06718656268746251	9.610632651441453	0.10901587662631715	0.612887195626967	-0.18183268560261834	0.29385307346326833	-1.0224887556221889	0.2368815592203898	
1.7374930443739158E12	0.20287127913714653	0.024096385542168676	9.83335401399619	0.05547690052623144	-0.05998800239952009	9.610681532579884	-0.18333980837796954	0.4803710452211363	-0.04274197996721287	0.2563718140929535	-1.0314842578710643	0.383808095952024	
1.73749304437889E12	0.2262424359973641	0.03614457831325302	9.905876882191299	0.05547690052623144	-0.05998800239952009	9.610681532579884	0.1227380525059372	0.41411297001822095	-0.022656705417608947	0.2563718140929535	-1.0314842578710643	0.383808095952024	
1.7374930443838643E12	0.20311221889859205	0.03614457831325302	9.809260037851637	0.06014200106000428	-0.0647870425914817	9.608373388108332	0.04736680381008265	0.28159681961239025	-0.14249967656722393	0.27136431784107945	-1.0089955022488755	0.2608695652173913	
1.7374930443888384E12	0.2029917490178693	0.04819277108433735	9.821307025923913	0.06014200106000428	-0.0647870425914817	9.608373388108332	0.1377647391478002	0.3312903760145768	0.006068198543101772	0.27136431784107945	-1.0089955022488755	0.2608695652173913	
1.7374930443938127E12	0.20275080925642375	0.03614457831325302	9.845401002068469	0.05787672187507381	-0.052789442111577684	9.60616390624631	0.04737177217205048	0.23190326321020371	-0.14299651276400643	0.2518740629685157	-1.0434782608695652	0.3823088455772114	
1.7374930443987869E12	0.19058335130342385	0.024096385542168676	9.857327520260021	0.05787672187507381	-0.052789442111577684	9.60616390624631	-0.10809326384768048	0.3975484512174921	0.089571407738951	0.2518740629685157	-1.0434782608695652	0.3823088455772114	
1.7374930444037612E12	0.21515920697086915	0.012048192771084338	9.809380507732358	0.04166850546969755	-0.05758848230353929	9.608260638755308	-0.3858659317743502	0.23190326321020371	0.30175397375966895	0.2653673163418291	-1.0119940029985006	0.27436281859070466	
1.7374930444087354E12	0.22744713480459183	0.04819277108433735	9.785407001468528	0.04166850546969755	-0.05758848230353929	9.608260638755308	-0.18259704686291428	0.3644194136160344	-0.11701813147273754	0.2653673163418291	-1.0119940029985006	0.27436281859070466	
1.7374930444137095E12	0.2150387370901464	0.012048192771084338	9.821427495804635	0.06716079606649533	-0.06238752249550089	9.603853961109413	0.028531415599184852	0.4306774888189498	0.2096455763755425	0.25037481259370314	-1.0419790104947526	0.36731634182908546	
1.7374930444186838E12	0.22696525528170075	0.03614457831325302	9.833594953757636	0.06716079606649533	-0.06238752249550089	9.603853961109413	0.1673363520921936	0.5963226768262382	0.1116940403977909	0.25037481259370314	-1.0419790104947526	0.36731634182908546	
1.737493044423658E12	0.2872001956430863	0.060240963855421686	9.83419730316125	0.05339564903774016	-0.04559088182363527	9.5992706658959	0.10816497215225583	0.34785489481530557	-0.09674223819648647	0.2653673163418291	-1.0074962518740629	0.2818590704647676	
1.7374930444286323E12	0.21479779732870086	0.04819277108433735	9.84552147194919	0.05339564903774016	-0.04559088182363527	9.5992706658959	-0.04407960947612316	0.4803710452211363	-0.18621975682872546	0.2653673163418291	-1.0074962518740629	0.2818590704647676	
1.7374930444336064E12	0.23925318311542337	-0.012048192771084338	9.809621447493805	0.06734482376293455	-0.05998800239952009	9.594652576287453	-0.045101589494116336	0.46380652642040743	-0.08402175502940795	0.24437781109445278	-1.0359820089955023	0.3658170914542728	
1.7374930444385806E12	0.2270857251624235	0.03614457831325302	9.821547965685358	0.06734482376293455	-0.05998800239952009	9.594652576287453	-0.26032956487277975	0.44724200761967864	-7.341712212588095E-4	0.24437781109445278	-1.0359820089955023	0.3658170914542728	
1.737493044443555E12	0.16697125468176072	0.024096385542168676	9.808898628209468	0.06291131722589785	-0.05998800239952009	9.585381020922199	-0.2604691741242487	0.38098393241676326	0.013226753925637607	0.26686656671664166	-1.0164917541229386	0.27436281859070466	
1.737493044448529E12	0.1787773029925923	0.024096385542168676	9.833113074234745	0.06291131722589785	-0.05998800239952009	9.585381020922199	0.060161893665468064	0.5797581580255093	0.1093849060412491	0.26686656671664166	-1.0164917541229386	0.27436281859070466	
1.7374930444535034E12	0.2150387370901464	0.012048192771084338	9.821427495804635	0.05339612884579775	-0.04799040191961607	9.599246675493022	-0.36704876089066774	0.2650323008116614	-0.048569546461561586	0.2638680659670165	-1.0449775112443778	0.34632683658170915	
1.7374930444584775E12	0.2275676046853146	0.04819277108433735	9.77336001339625	0.06480278332125888	-0.04799040191961607	9.606281157262693	-0.13785416966322106	0.5631936392247805	0.002874852998983384	0.2638680659670165	-1.0449775112443778	0.34632683658170915	
1.7374930444634517E12	0.25142064106842327	0.024096385542168676	9.797694929302251	0.06480422274543163	-0.055188962207558485	9.606209186054054	-0.23087106324936024	0.38098393241676326	0.11620280273082002	0.27136431784107945	-1.0134932533733134	0.2893553223388306	
1.737493044468426E12	0.19118570070703772	0.03614457831325302	9.797092579898637	0.05307707917738902	-0.06718656268746251	9.615199158913459	-0.1840842260136807	0.612887195626967	0.031699783603905955	0.27136431784107945	-1.0134932533733134	0.2893553223388306	
1.7374930444734001E12	0.21540014673231472	0.03614457831325302	9.785286531587804	0.05307707917738902	-0.06718656268746251	9.615199158913459	0.07782741200362402	0.4306774888189498	-0.12577335962733258	0.24887556221889054	-1.050974512743628	0.3613193403298351	
1.7374930444783745E12	0.2270857251624235	-0.012048192771084338	9.821547965685358	0.050716667391864645	-0.04079184163167366	9.617746307081132	-0.12224751644695495	0.5300646016233228	-0.02639690048061577	0.27136431784107945	-1.010494752623688	0.2863568215892054	
1.7374930444833486E12	0.19094476094559218	0.04819277108433735	9.82118655604319	0.050716667391864645	-0.04079184163167366	9.617746307081132	0.07725241379118876	0.3312903760145768	-0.0682735383838052	0.27136431784107945	-1.010494752623688	0.2863568215892054	
1.7374930444883228E12	0.13107123022637496	0.060240963855421686	9.784443242422746	0.05981623407878936	-0.050389922015596875	9.624661737169076	-0.1059113506808811	0.513500082822594	-0.12861990894098624	0.24587706146926536	-1.0344827586206897	0.3493253373313343	
1.737493044493297E12	0.19082429106486942	0.0963855421686747	9.833233544115467	0.05981623407878936	-0.050389922015596875	9.624661737169076	-0.15312364015359134	0.14908066920655955	-0.0015716661110062311	0.24587706146926536	-1.0344827586206897	0.3493253373313343	
1.7374930444982712E12	0.19118570070703772	0.10843373493975904	9.797092579898637	0.06720548351844677	-0.055188962207558485	9.601619588511841	0.07782575588296808	0.44724200761967864	-0.1256077475617384	0.27586206896551724	-1.010494752623688	0.29235382308845576	
1.7374930445032456E12	0.1670917245624835	0.08433734939759037	9.796851640137191	0.06720548351844677	-0.055188962207558485	9.601619588511841	-0.04613185011538922	0.5300646016233228	0.019004307097880393	0.27586206896551724	-1.010494752623688	0.29235382308845576	
1.7374930445082197E12	0.23925318311542337	0.03614457831325302	9.809621447493805	0.06711274995814082	-0.052789442111577684	9.606256266527142	-0.3659053889484209	0.5300646016233228	-0.16290674068623964	0.2578710644677661	-1.04047976011994	0.34632683658170915	
1.7374930445131938E12	0.23889177347325508	0.012048192771084338	9.845762411710638	0.06711274995814082	-0.052789442111577684	9.606256266527142	-0.15227107955887406	0.3975484512174921	-0.08682772558273225	0.2578710644677661	-1.04047976011994	0.34632683658170915	
1.7374930445181682E12	0.20311221889859205	0.03614457831325302	9.809260037851637	0.055519188937894925	-0.04079184163167366	9.608567111996708	-0.1982070123204923	0.4306774888189498	-0.08741515386195003	0.2653673163418291	-1.0089955022488755	0.2983508245877061	
1.7374930445231423E12	0.22720619504314626	0.0	9.809500977613082	0.055519188937894925	-0.04079184163167366	9.608567111996708	0.015708171692648435	0.41411297001822095	-0.039423601117829665	0.2653673163418291	-1.0089955022488755	0.2983508245877061	
1.7374930445281167E12	0.15528567625165193	0.060240963855421686	9.772637194111914	0.03899096324799481	-0.05998800239952009	9.6266643087319	-0.2756387822588926	0.4306774888189498	-0.0012060007569883544	0.25337331334332835	-1.0179910044977512	0.3523238380809595	
1.7374930445330908E12	0.21527967685159194	0.04819277108433735	9.797333519660082	0.03899096324799481	-0.05998800239952009	9.6266643087319	-0.20010308250172995	0.38098393241676326	0.10219186426181767	0.25337331334332835	-1.0179910044977512	0.3523238380809595	
1.737493044538065E12	0.23853036383108675	0.04819277108433735	9.881903375927468	0.04392946638210979	-0.04799040191961607	9.61068603424324	-0.13563747796264694	0.3312903760145768	-0.21879431705843141	0.2623688155922039	-1.0119940029985006	0.29535232383808097	
1.7374930445430393E12	0.21491826720942364	0.07228915662650603	9.833474483876913	0.04392946638210979	-0.04799040191961607	9.61068603424324	0.02940219352111747	0.4969355640218651	0.12256778418228059	0.2623688155922039	-1.0119940029985006	0.29535232383808097	
1.7374930445480134E12	0.22684478540097797	0.060240963855421686	9.845641941829914	0.06697676837005614	-0.0647870425914817	9.613055345931375	-0.18114630236657855	0.4803710452211363	-0.2620925811063093	0.2653673163418291	-1.04047976011994	0.34332833583208394	
1.7374930445529878E12	0.21527967685159194	0.03614457831325302	9.797333519660082	0.06697676837005614	-0.0647870425914817	9.613055345931375	-0.07628674187549758	0.24846778201093256	-0.028293653185310526	0.2653673163418291	-1.04047976011994	0.34332833583208394	
1.737493044557962E12	0.21540014673231472	0.03614457831325302	9.785286531587804	0.04831732585107981	-0.050389922015596875	9.622239943011827	0.015271126611026184	0.3975484512174921	0.004280907044395446	0.2623688155922039	-1.0164917541229386	0.29535232383808097	
1.737493044562936E12	0.20335315866003761	0.08433734939759037	9.785166061707082	0.04831732585107981	-0.050389922015596875	9.622239943011827	-0.017554063137838	0.4969355640218651	0.22401274563678614	0.2623688155922039	-1.0164917541229386	0.29535232383808097	
1.7374930445679104E12	0.20323268877931483	0.08433734939759037	9.79721304977936	0.05778686716311335	-0.0647870425914817	9.610656641844333	-0.23263580478240867	0.4803710452211363	0.2926769560356622	0.2563718140929535	-1.0344827586206897	0.33883058470764615	
1.7374930445728845E12	0.23901224335397786	0.0	9.83371542363836	0.05778686716311335	-0.0647870425914817	9.610656641844333	0.002326490780236162	0.1325161504058307	-0.23264907802361617	0.2563718140929535	-1.0344827586206897	0.33883058470764615	
1.737493044577859E12	0.22696525528170075	-0.03614457831325302	9.833594953757636	0.06272872895363135	-0.0695860827834433	9.594510434535522	0.061668946264105795	0.1325161504058307	-0.04132035382252442	0.2563718140929535	-1.0119940029985006	0.3028485757121439	
1.737493044582833E12	0.1554061461323747	0.07228915662650603	9.760590206039637	0.06272872895363135	-0.0695860827834433	9.594510434535522	0.13805555049532972	0.34785489481530557	-0.023012936209850246	0.2563718140929535	-1.0119940029985006	0.3028485757121439	
1.7374930445878071E12	0.22744713480459183	0.03614457831325302	9.785407001468528	0.06258794928497083	-0.05758848230353929	9.601549417968547	0.0776662731836278	0.5797581580255093	-0.10965947762771194	0.2653673163418291	-1.0344827586206897	0.3328335832083958	
1.7374930445927815E12	0.2750327376900864	0.04819277108433735	9.846123821352805	0.06258794928497083	-0.05758848230353929	9.601549417968547	-0.21339152554103966	0.6294517144276959	-0.10035739995422847	0.2653673163418291	-1.0344827586206897	0.3328335832083958	
1.7374930445977556E12	0.23901224335397786	0.060240963855421686	9.83371542363836	0.06484843038932547	-0.04559088182363527	9.60399880385936	0.13904109585889218	0.7288388272320688	-0.12156747256609601	0.25037481259370314	-1.014992503748126	0.30134932533733133	
1.73749304460273E12	0.2158820262552058	0.024096385542168676	9.737098579298696	0.06484843038932547	-0.04559088182363527	9.60399880385936	0.017878492014856216	0.6460162332284247	-0.2564556333386077	0.25037481259370314	-1.014992503748126	0.30134932533733133	
1.737493044607704E12	0.23937365299614616	0.024096385542168676	9.79757445942153	0.06508290323440719	-0.0647870425914817	9.592275161605277	-0.2912537160784384	0.5466291204240517	0.028893813050581647	0.2638680659670165	-1.0344827586206897	0.3298350824587706	
1.7374930446126782E12	0.2150387370901464	0.024096385542168676	9.821427495804635	0.06508290323440719	-0.0647870425914817	9.592275161605277	-0.10575518022285273	0.41411297001822095	-0.14423695474382434	0.2638680659670165	-1.0344827586206897	0.3298350824587706	
1.7374930446176526E12	0.2029917490178693	0.0	9.821307025923913	0.05090741240111002	-0.07198560287942411	9.608209056618863	-0.10838241907455405	0.3644194136160344	0.11848693042630885	0.2383808095952024	-1.0164917541229386	0.3028485757121439	
1.7374930446226267E12	0.16685078480103796	0.03614457831325302	9.820945616281744	0.05090741240111002	-0.07198560287942411	9.608209056618863	0.19990385290664708	0.14908066920655955	-0.08226890475353116	0.2383808095952024	-1.0164917541229386	0.3028485757121439	
1.737493044627601E12	0.21552061661303748	0.04819277108433735	9.773239543515526	0.046378293455421854	-0.055188962207558485	9.603718121686182	-0.1704966910235618	0.2981613384131191	0.20433985273902924	0.2788605697151424	-1.050974512743628	0.3148425787106447	
1.7374930446325752E12	0.21527967685159194	0.04819277108433735	9.797333519660082	0.046378293455421854	-0.055188962207558485	9.603718121686182	-0.07597440095944083	0.04969355640218651	-0.05952774479098675	0.2788605697151424	-1.050974512743628	0.3148425787106447	
1.7374930446375496E12	0.22720619504314626	0.0	9.809500977613082	0.060142960676119406	-0.0695860827834433	9.608325407302573	-0.2132121693938281	0.2981613384131191	-0.11829301467538497	0.239880059970015	-1.010494752623688	0.3043478260869565	
1.7374930446425237E12	0.2633471592599776	0.04819277108433735	9.80986238725525	0.060142960676119406	-0.0695860827834433	9.608325407302573	-0.10894913668370962	0.1822097068080172	0.17515869134186537	0.239880059970015	-1.010494752623688	0.3043478260869565	
1.7374930446474978E12	0.20287127913714653	0.024096385542168676	9.83335401399619	0.06235683509629228	-0.055188962207558485	9.613105127402475	-0.047306688350098894	0.5797581580255093	0.13648813056884768	0.29535232383808097	-1.025487256371814	0.3403298350824588	
1.7374930446524722E12	0.23925318311542337	0.0963855421686747	9.809621447493805	0.06235683509629228	-0.055188962207558485	9.613105127402475	-0.22838177752847197	0.34785489481530557	-0.13272576935801092	0.29535232383808097	-1.025487256371814	0.3403298350824588	
1.7374930446574463E12	0.2029917490178693	0.03614457831325302	9.821307025923913	0.05570465605850691	-0.04559088182363527	9.599293755966109	-0.1525552664237798	0.31472585721384794	-0.05840903909215692	0.239880059970015	-1.0239880059970015	0.3073463268365817	
1.7374930446624207E12	0.21479779732870086	0.10843373493975904	9.84552147194919	0.05570465605850691	-0.04559088182363527	9.599293755966109	0.07504897105586213	0.4306774888189498	0.15207073514885622	0.239880059970015	-1.0239880059970015	0.3073463268365817	
1.7374930446673948E12	0.21515920697086915	0.060240963855421686	9.809380507732358	0.06249281668437695	-0.04319136172765446	9.606306047998244	-0.36590704506907684	0.5466291204240517	-0.16274112862064546	0.29235382308845576	-1.0224887556221889	0.3238380809595202	
1.737493044672369E12	0.2029917490178693	0.012048192771084338	9.821307025923913	0.06249281668437695	-0.04319136172765446	9.606306047998244	0.06355342360075188	0.2981613384131191	-0.22976808748713295	0.29235382308845576	-1.0224887556221889	0.3238380809595202	
1.7374930446773433E12	0.21491826720942364	0.03614457831325302	9.833474483876913	0.06226362172792871	-0.050389922015596875	9.617765795820654	-0.19688925259300177	0.41411297001822095	-0.21919112661100207	0.2083958020989505	-1.0374812593703149	0.3088455772113943	
1.7374930446823174E12	0.2992471837153634	0.03614457831325302	9.834317773041972	0.06226362172792871	-0.050389922015596875	9.617765795820654	-0.07672544307777578	0.24846778201093256	0.01557646704250876	0.2083958020989505	-1.0374812593703149	0.3088455772113943	
1.7374930446872917E12	0.14299774841792928	0.024096385542168676	9.796610700375746	0.06475761606124986	-0.052789442111577684	9.608539520263143	-0.1827300316317595	0.23190326321020371	-0.1037196545882178	0.31784107946026985	-1.0179910044977512	0.32533733133433285	
1.7374930446922659E12	0.21515920697086915	0.024096385542168676	9.809380507732358	0.06475761606124986	-0.052789442111577684	9.608539520263143	-0.10444238885733002	0.44724200761967864	-0.2755160912960939	0.31784107946026985	-1.0179910044977512	0.32533733133433285	
1.73749304469724E12	0.22732666492386905	0.03614457831325302	9.797453989540806	0.07897923377067115	-0.04559088182363527	9.590299281443347	0.029536834410618606	0.612887195626967	0.10910369523216669	0.19640179910044978	-1.0359820089955023	0.32233883058470764	
1.7374930447022144E12	0.26322668937925486	0.03614457831325302	9.821909375327527	0.07897923377067115	-0.04559088182363527	9.590299281443347	-0.1671730620351716	0.6957097896306111	-0.12802304609999188	0.19640179910044978	-1.0359820089955023	0.32233883058470764	
1.7374930447071885E12	0.1791387126347606	0.03614457831325302	9.796972110017915	0.05362820265059148	-0.055188962207558485	9.587642985253336	-0.168603933083636	0.38098393241676326	0.015064058746449862	0.34182908545727136	-1.0074962518740629	0.3193403298350824	
1.7374930447121628E12	0.22720619504314626	0.024096385542168676	9.809500977613082	0.05362820265059148	-0.055188962207558485	9.587642985253336	0.06162423100639537	0.5797581580255093	-0.03684882805148185	0.34182908545727136	-1.0074962518740629	0.3193403298350824	
1.737493044717137E12	0.20323268877931483	0.024096385542168676	9.79721304977936	0.05542933422593446	-0.052789442111577684	9.613059847594732	0.06195810149097938	0.1656451880072884	-0.07023587650988226	0.1874062968515742	-1.055472263868066	0.31334332833583206	
1.737493044722111E12	0.1913061705877605	0.04819277108433735	9.785045591826359	0.05542933422593446	-0.052789442111577684	9.613059847594732	-0.22969125665268275	0.28159681961239025	-0.001777856936929753	0.1874062968515742	-1.055472263868066	0.31334332833583206	
1.7374930447270854E12	0.14323868817937482	0.024096385542168676	9.77251672423119	0.05561528115460404	-0.05998800239952009	9.603762501161254	-0.07717076876267774	0.31472585721384794	0.060109035532704726	0.3583208395802099	-1.0	0.30134932533733133	
1.7374930447320596E12	0.21515920697086915	0.08433734939759037	9.809380507732358	0.05561528115460404	-0.05998800239952009	9.603762501161254	-0.22736642199310256	0.4306774888189498	-0.23426132289495175	0.3583208395802099	-1.0	0.30134932533733133	
1.737493044737034E12	0.21479779732870086	0.07228915662650603	9.84552147194919	0.05750770686608023	-0.052789442111577684	9.62461465669599	-0.21410778912559983	0.4803710452211363	-0.028731041498210534	0.18140929535232383	-1.0689655172413792	0.33883058470764615	
1.737493044742008E12	0.13070982058420663	0.024096385542168676	9.820584206639577	0.05750770686608023	-0.052789442111577684	9.62461465669599	-0.04614013071866893	0.612887195626967	0.01983236742585124	0.18140929535232383	-1.0689655172413792	0.33883058470764615	
1.7374930447469822E12	0.1549242666094836	0.12048192771084337	9.808778158328746	0.05538512658204059	-0.06238752249550089	9.615270229789424	-0.07526476185750441	0.2650323008116614	-0.13049165498462803	0.3538230884557721	-0.9775112443778111	0.29235382308845576	
1.7374930447519565E12	0.1787773029925923	0.08433734939759037	9.833113074234745	0.05538512658204059	-0.06238752249550089	9.615270229789424	0.17159534770809814	0.41411297001822095	-0.3142055211926647	0.3538230884557721	-0.9775112443778111	0.29235382308845576	
1.7374930447569307E12	0.17937965239620615	0.04819277108433735	9.772878133873359	0.05108952086531893	-0.05998800239952009	9.599103633408419	-0.2747762849402397	0.5797581580255093	-0.08745573262227939	0.17991004497751123	-1.0719640179910044	0.34782608695652173	
1.737493044761905E12	0.2029917490178693	0.012048192771084338	9.821307025923913	0.05108952086531893	-0.05998800239952009	9.599103633408419	-0.061308082732656866	0.6460162332284247	0.00523400067763111	0.17991004497751123	-1.0719640179910044	0.34782608695652173	
1.7374930447668792E12	0.14311821829865207	0.024096385542168676	9.784563712303468	0.04610153219867666	-0.055188962207558485	9.617556184523442	-0.02948996791588238	0.38098393241676326	-0.11379034470578961	0.34332833583208394	-0.9790104947526237	0.2788605697151424	
1.7374930447718533E12	0.21527967685159194	0.024096385542168676	9.797333519660082	0.04610153219867666	-0.055188962207558485	9.617556184523442	-0.10923663578992725	0.1325161504058307	0.20390860196362906	0.34332833583208394	-0.9790104947526237	0.2788605697151424	
1.7374930447768276E12	0.15528567625165193	0.03614457831325302	9.772637194111914	0.060050227115813454	-0.06718656268746251	9.612962085317871	-0.013314940969804743	0.513500082822594	-0.19989947116653944	0.17841079460269865	-1.0749625187406298	0.3523238380809595	
1.7374930447818018E12	0.22684478540097797	0.07228915662650603	9.845641941829914	0.060050227115813454	-0.06718656268746251	9.612962085317871	-0.013919749354046967	0.71227430843134	-0.13941863274231703	0.17841079460269865	-1.0749625187406298	0.3523238380809595	
1.7374930447867761E12	0.23901224335397786	0.060240963855421686	9.83371542363836	0.07403833159626827	-0.04559088182363527	9.606397507946403	0.03073982669647929	0.28159681961239025	-0.01119553335390146	0.3403298350824588	-0.9685157421289355	0.2563718140929535	
1.7374930447917502E12	0.2513001711877005	0.060240963855421686	9.809741917374527	0.07403833159626827	-0.04559088182363527	9.606397507946403	-0.10649462949659608	0.4969355640218651	-0.07029202736948802	0.3403298350824588	-0.9685157421289355	0.2563718140929535	
1.7374930447967244E12	0.22720619504314626	0.012048192771084338	9.809500977613082	0.05094730177248563	-0.04079184163167366	9.606214588050083	-0.03140591154499136	0.5300646016233228	0.07780401820510814	0.18590704647676162	-1.0839580209895052	0.383808095952024	
1.7374930448016987E12	0.2275676046853146	0.060240963855421686	9.77336001339625	0.05094730177248563	-0.04079184163167366	9.606214588050083	-0.10619056918381903	0.38098393241676326	-0.10069805864719339	0.18590704647676162	-1.0839580209895052	0.383808095952024	
1.7374930448066729E12	0.19118570070703772	0.04819277108433735	9.797092579898637	0.05769509321892252	-0.06718656268746251	9.615245339053873	-0.07482606065522622	0.2650323008116614	-0.1743617752124473	0.328335832083958	-0.9625187406296851	0.2338830584707646	
1.7374930448116472E12	0.20323268877931483	0.060240963855421686	9.79721304977936	0.05769509321892252	-0.06718656268746251	9.615245339053873	0.09182715026552606	0.38098393241676326	0.005646382329478154	0.328335832083958	-0.9625187406296851	0.2338830584707646	
1.7374930448166213E12	0.23925318311542337	0.04819277108433735	9.809621447493805	0.057968016011207046	-0.04799040191961607	9.601599199439649	-0.061723598245751875	0.41411297001822095	0.04678555198713202	0.19490254872563717	-1.0689655172413792	0.38830584707646176	
1.7374930448215955E12	0.23925318311542337	0.10843373493975904	9.809621447493805	0.057968016011207046	-0.04799040191961607	9.601599199439649	-0.06084453972053954	0.3975484512174921	-0.041120300534100714	0.19490254872563717	-1.0689655172413792	0.38830584707646176	
1.7374930448265698E12	0.22768807456603735	0.08433734939759037	9.761313025323973	0.06267972322916168	-0.055188962207558485	9.596960720759006	-0.2744722246274626	0.46380652642040743	-0.11786176389998478	0.33433283358320837	-0.9670164917541229	0.2353823088455772	
1.737493044831544E12	0.1791387126347606	0.13253012048192772	9.796972110017915	0.06267972322916168	-0.055188962207558485	9.596960720759006	-0.029506529122441796	0.5466291204240517	-0.11213422404984791	0.33433283358320837	-0.9670164917541229	0.2353823088455772	
1.7374930448365183E12	0.26322668937925486	0.024096385542168676	9.821909375327527	0.06004782807552553	-0.055188962207558485	9.613082037332267	0.001292917917651395	0.23190326321020371	-0.12929179176513947	0.19640179910044978	-1.0719640179910044	0.4197901049475262	
1.7374930448414924E12	0.20323268877931483	0.012048192771084338	9.79721304977936	0.06004782807552553	-0.055188962207558485	9.613082037332267	-0.18346616866419097	0.28159681961239025	-0.030105951345069815	0.19640179910044978	-1.0719640179910044	0.4197901049475262	
1.7374930448464668E12	0.20335315866003761	0.012048192771084338	9.785166061707082	0.053489342214161295	-0.052789442111577684	9.594586007074845	-0.12193351941024225	0.31472585721384794	-0.057796604151886165	0.3073463268365817	-0.9625187406296851	0.2143928035982009	
1.737493044851441E12	0.21479779732870086	0.03614457831325302	9.84552147194919	0.053489342214161295	-0.052789442111577684	9.594586007074845	-0.15022546340223178	0.41411297001822095	-0.2913893412469614	0.3073463268365817	-0.9625187406296851	0.2143928035982009	
1.737493044856415E12	0.19094476094559218	0.024096385542168676	9.82118655604319	0.062262182303755964	-0.04319136172765446	9.617837767029293	-0.16686734560173858	0.5631936392247805	-0.15859468944329141	0.21889055472263869	-1.0794602698650675	0.4212893553223388	
1.7374930448613894E12	0.20287127913714653	0.03614457831325302	9.83335401399619	0.062262182303755964	-0.04319136172765446	9.617837767029293	0.13730616449765073	0.5300646016233228	0.05192566355805109	0.21889055472263869	-1.0794602698650675	0.4212893553223388	
1.7374930448663635E12	0.23853036383108675	0.060240963855421686	9.881903375927468	0.0627253702972283	-0.052789442111577684	9.594678367355677	-0.02949328015719426	0.41411297001822095	-0.11345912057460127	0.31334332833583206	-0.9775112443778111	0.20389805097451275	
1.737493044871338E12	0.19118570070703772	0.024096385542168676	9.797092579898637	0.0627253702972283	-0.052789442111577684	9.594678367355677	-0.120191963566377	0.44724200761967864	-0.23195218853840993	0.31334332833583206	-0.9775112443778111	0.20389805097451275	
1.737493044876312E12	0.17901824275403783	0.024096385542168676	9.809019098090191	0.04605492551449486	-0.052789442111577684	9.619886518732532	-0.030377307044374417	0.4803710452211363	-0.02505643185658602	0.22338830584707645	-1.0689655172413792	0.4332833583208396	
1.7374930448812861E12	0.2029917490178693	0.03614457831325302	9.821307025923913	0.04605492551449486	-0.052789442111577684	9.619886518732532	-0.3069734806156785	0.24846778201093256	0.0694766986275705	0.22338830584707645	-1.0689655172413792	0.4332833583208396	
1.7374930448862605E12	0.19106523082631494	0.03614457831325302	9.809139567970913	0.06461971524093482	-0.055188962207558485	9.615434561278892	0.017482849949632506	0.2153387444094749	-0.21689142681623685	0.29685157421289354	-0.985007496251874	0.19940029985007496	
1.7374930448912346E12	0.21491826720942364	-0.012048192771084338	9.833474483876913	0.06461971524093482	-0.055188962207558485	9.615434561278892	-0.12150972329386753	0.46380652642040743	-0.10017621578935793	0.29685157421289354	-0.985007496251874	0.19940029985007496	
1.737493044896209E12	0.1545628569673153	0.024096385542168676	9.844919122545578	0.043884299122100734	-0.052789442111577684	9.612944397243695	-0.19891499530177276	0.19877422560874605	-0.016616855733902945	0.21739130434782608	-1.0644677661169415	0.43478260869565216	
1.737493044901183E12	0.19082429106486942	0.012048192771084338	9.833233544115467	0.043884299122100734	-0.052789442111577684	9.612944397243695	-0.15256520314771546	0.41411297001822095	-0.057415366698591895	0.21739130434782608	-1.0644677661169415	0.43478260869565216	
1.7374930449061572E12	0.17889777287331507	0.060240963855421686	9.821066086162467	0.055473541869828336	-0.04319136172765446	9.610849465400038	-0.18507473973921099	0.28159681961239025	0.13075115615693422	0.29985007496251875	-0.9805097451274363	0.191904047976012	
1.7374930449111316E12	0.2634676291407004	0.0	9.797815399182975	0.055473541869828336	-0.04319136172765446	9.610849465400038	0.001729962999273646	0.24846778201093256	-0.1729962999273646	0.29985007496251875	-0.9805097451274363	0.191904047976012	
1.7374930449161057E12	0.23937365299614616	0.0	9.79757445942153	0.060325548948385904	-0.05998800239952009	9.59919599368925	0.16693077330303424	0.2650323008116614	0.15225191931372678	0.23238380809595202	-1.0524737631184407	0.4482758620689655	
1.73749304492108E12	0.20323268877931483	-0.024096385542168676	9.79721304977936	0.060325548948385904	-0.05998800239952009	9.59919599368925	-0.09072518133967782	0.2981613384131191	-0.11584327491430196	0.23238380809595202	-1.0524737631184407	0.4482758620689655	
1.7374930449260542E12	0.16697125468176072	0.04819277108433735	9.808898628209468	0.043977512490464304	-0.05758848230353929	9.608283728825516	0.12390129789605527	0.4803710452211363	-0.138981244429417	0.2863568215892054	-0.9820089955022488	0.19490254872563717	
1.7374930449310283E12	0.2873206655238091	0.024096385542168676	9.822150315088972	0.043977512490464304	-0.05758848230353929	9.608283728825516	-0.19761048453952976	0.31472585721384794	-0.14706793195820161	0.2863568215892054	-0.9820089955022488	0.19490254872563717	
1.7374930449360027E12	0.2150387370901464	0.024096385542168676	9.821427495804635	0.05335192120190388	-0.05758848230353929	9.601457057687716	-0.013884970820272192	0.3644194136160344	-0.14289648611979458	0.25037481259370314	-1.0494752623688155	0.4452773613193403	
1.7374930449409768E12	0.2387713035925323	0.04819277108433735	9.857809399782914	0.05335192120190388	-0.05758848230353929	9.601457057687716	-0.19892990038767625	0.34785489481530557	-0.01512634714355542	0.25037481259370314	-1.0494752623688155	0.4452773613193403	
1.7374930449459512E12	0.26322668937925486	0.03614457831325302	9.821909375327527	0.06697532894588334	-0.05758848230353929	9.613127317140012	-0.06041743136285294	0.513500082822594	-0.08383113630276082	0.2863568215892054	-0.9955022488755622	0.191904047976012	
1.7374930449509253E12	0.25117970130697775	0.03614457831325302	9.821788905446803	0.06697532894588334	-0.05758848230353929	9.613127317140012	-0.05982255970254637	0.41411297001822095	-0.1433183023334182	0.2863568215892054	-0.9955022488755622	0.191904047976012	
1.7374930449558994E12	0.22720619504314626	-0.024096385542168676	9.809500977613082	0.0647124488012408	-0.05758848230353929	9.610797883263594	0.028852037118521322	0.14908066920655955	0.1775834244418954	0.2383808095952024	-1.0539730134932532	0.4407796101949025	
1.7374930449608738E12	0.22720619504314626	-0.024096385542168676	9.809500977613082	0.0647124488012408	-0.05758848230353929	9.610797883263594	-0.10504222887960442	0.5963226768262382	-0.21553208906865395	0.2383808095952024	-1.0539730134932532	0.4407796101949025	
1.737493044965848E12	0.15480379672876085	0.03614457831325302	9.820825146401022	0.062263141919871146	-0.04799040191961607	9.617789786223534	0.1696926530442367	0.4306774888189498	-0.12393605480652031	0.27586206896551724	-0.9895052473763118	0.2098950524737631	
1.7374930449708223E12	0.11866283251192952	0.07228915662650603	9.820463736758853	0.062263141919871146	-0.04799040191961607	9.617789786223534	-0.23042739368511425	0.3312903760145768	0.07183584630621823	0.27586206896551724	-0.9895052473763118	0.2098950524737631	
1.7374930449757964E12	0.19154711034920602	0.024096385542168676	9.760951615681805	0.06457502778898339	-0.06238752249550089	9.617668933876466	0.015837844220181748	0.5797581580255093	-0.05239085387116107	0.24587706146926536	-1.0539730134932532	0.4332833583208396	
1.7374930449807705E12	0.21479779732870086	0.024096385542168676	9.84552147194919	0.06457502778898339	-0.06238752249550089	9.617668933876466	0.028373589020500526	0.5466291204240517	0.2254282342439748	0.24587706146926536	-1.0539730134932532	0.4332833583208396	
1.7374930449857449E12	0.26322668937925486	0.012048192771084338	9.821909375327527	0.05072050585632534	-0.05998800239952009	9.6175543838581	-0.09074339866689318	0.4803710452211363	-0.1140215421927661	0.2833583208395802	-1.010494752623688	0.20689655172413793	
1.737493044990719E12	0.20311221889859205	0.03614457831325302	9.809260037851637	0.05072050585632534	-0.05998800239952009	9.6175543838581	-0.07731369025545859	0.28159681961239025	0.07440118481078947	0.2833583208395802	-1.010494752623688	0.20689655172413793	
1.7374930449956934E12	0.1913061705877605	0.060240963855421686	9.785045591826359	0.07644055198539859	-0.050389922015596875	9.601759929598431	-0.061848302411317356	0.19877422560874605	0.05925596854368091	0.24287856071964017	-1.050974512743628	0.42278860569715143	
1.7374930450006675E12	0.16685078480103796	0.03614457831325302	9.820945616281744	0.07644055198539859	-0.050389922015596875	9.601759929598431	-0.030201263138474734	0.1822097068080172	-0.04266082244655417	0.24287856071964017	-1.050974512743628	0.42278860569715143	
1.7374930450056416E12	0.17901824275403783	-0.024096385542168676	9.809019098090191	0.04651619427573686	-0.052789442111577684	9.596823080670433	-0.09207606348028716	0.6460162332284247	0.019244939146633454	0.2773613193403298	-1.0044977511244377	0.2128935532233883	
1.737493045010616E12	0.19118570070703772	-0.012048192771084338	9.797092579898637	0.04651619427573686	-0.052789442111577684	9.596823080670433	-0.10738031250443218	0.5797581580255093	0.0182762734141214	0.24437781109445278	-1.0449775112443778	0.41829085457271364	
1.73749304501559E12	0.15528567625165193	0.012048192771084338	9.772637194111914	0.05783251423117994	-0.06238752249550089	9.608374288441002	0.2587711725338078	0.513500082822594	0.15657340511845158	0.24437781109445278	-1.0449775112443778	0.41829085457271364	
1.7374930450205645E12	0.1670917245624835	0.024096385542168676	9.796851640137191	0.05783251423117994	-0.06238752249550089	9.608374288441002	-0.29008550232635255	0.5631936392247805	-0.08792756215800894	0.27436281859070466	-1.0	0.22638680659670163	
1.7374930450255386E12	0.19082429106486942	0.024096385542168676	9.833233544115467	0.05570609548267966	-0.052789442111577684	9.599221784757471	-0.13726923472685013	0.5631936392247805	-0.05561864063810899	0.27436281859070466	-1.0	0.22638680659670163	
1.7374930450305127E12	0.1787773029925923	0.060240963855421686	9.833113074234745	0.05570609548267966	-0.052789442111577684	9.599221784757471	-0.16729114171811332	0.41411297001822095	-0.11621507780581965	0.25037481259370314	-1.04047976011994	0.39430284857571213	
1.737493045035487E12	0.21527967685159194	0.04819277108433735	9.797333519660082	0.05773642201447088	-0.04319136172765446	9.613178899276457	-0.10693333069887427	0.4969355640218651	-0.026421907141668734	0.25037481259370314	-1.04047976011994	0.39430284857571213	
1.7374930450404612E12	0.2633471592599776	0.04819277108433735	9.80986238725525	0.05773642201447088	-0.04319136172765446	9.613178899276457	-0.16717140591451565	0.6791452708298823	-0.12818865816558603	0.2698650674662669	-0.9985007496251874	0.2518740629685157	
1.7374930450454355E12	0.21540014673231472	0.08433734939759037	9.785286531587804	0.0560736710675005	-0.04559088182363527	9.58084300551643	-0.2603444699586832	0.5963226768262382	7.563373690887163E-4	0.2698650674662669	-0.9985007496251874	0.2518740629685157	
1.7374930450504097E12	0.20347362854076037	0.07228915662650603	9.773119073634804	0.0560736710675005	-0.04559088182363527	9.58084300551643	0.045894529745219695	0.38098393241676326	0.004727729919072027	0.25037481259370314	-1.0314842578710643	0.39280359820089955	
1.7374930450553838E12	0.25154111094914605	0.012048192771084338	9.785647941229973	0.05506031921694088	-0.052789442111577684	9.631510598044411	-0.015619902181513663	0.1656451880072884	0.03059665000435251	0.25037481259370314	-1.0314842578710643	0.39280359820089955	
1.7374930450603582E12	0.2270857251624235	0.024096385542168676	9.821547965685358	0.05506031921694088	-0.052789442111577684	9.631510598044411	-0.19966603742010772	0.3975484512174921	0.05848735609959257	0.272863568215892	-1.0164917541229386	0.24887556221889054	
1.7374930450653323E12	0.19118570070703772	0.08433734939759037	9.797092579898637	0.04845762571168277	-0.05998800239952009	9.61522494998168	0.002002557019587808	0.44724200761967864	-0.20025570195878076	0.272863568215892	-1.0164917541229386	0.24887556221889054	
1.7374930450703066E12	0.2150387370901464	0.04819277108433735	9.821427495804635	0.04845762571168277	-0.05998800239952009	9.61522494998168	-0.030654869426656402	0.3312903760145768	0.00269980637161264	0.2578710644677661	-1.0284857571214392	0.3778110944527736	
1.7374930450752808E12	0.2631062194985321	0.012048192771084338	9.833956363399805	0.06457118932452272	-0.04319136172765446	9.6178608570995	0.2449209802473104	0.5300646016233228	0.010199065621179438	0.2578710644677661	-1.0284857571214392	0.3778110944527736	
1.7374930450802551E12	0.25105923142625497	0.012048192771084338	9.833835893519081	0.06457118932452272	-0.04319136172765446	9.6178608570995	-0.29211952563840327	0.4306774888189498	0.11547476904706103	0.26836581709145424	-1.014992503748126	0.2593703148425787	
1.7374930450852292E12	0.20335315866003761	0.0	9.785166061707082	0.0505830848440679	-0.0647870425914817	9.62442543447097	0.046168779886189795	0.5631936392247805	-0.022697284177938298	0.26836581709145424	-1.014992503748126	0.2593703148425787	
1.7374930450902034E12	0.19142664046848326	0.03614457831325302	9.77299860375408	0.0505830848440679	-0.0647870425914817	9.62442543447097	-0.36779980300900267	0.46380652642040743	0.02653466537193392	0.24887556221889054	-1.0419790104947526	0.3613193403298351	
1.7374930450951777E12	0.19106523082631494	0.024096385542168676	9.809139567970913	0.05552206778624044	-0.055188962207558485	9.608423169579433	-0.13903066401858669	0.6294517144276959	0.12052428853554482	0.24887556221889054	-1.0419790104947526	0.3613193403298351	
1.7374930451001519E12	0.19082429106486942	-0.012048192771084338	9.833233544115467	0.05552206778624044	-0.055188962207558485	9.608423169579433	0.0768037758649749	0.4306774888189498	-0.023409745762420903	0.2833583208395802	-1.0014992503748126	0.2593703148425787	
1.7374930451051262E12	0.19094476094559218	0.024096385542168676	9.82118655604319	0.05302807345291932	-0.052789442111577684	9.617649445136944	0.03158410668791684	0.612887195626967	-0.09562353249765664	0.2833583208395802	-1.0014992503748126	0.2593703148425787	
1.7374930451101003E12	0.20323268877931483	0.024096385542168676	9.79721304977936	0.05302807345291932	-0.052789442111577684	9.617649445136944	-0.29079514142828894	0.34785489481530557	-0.016963651964367672	0.25487256371814093	-1.0464767616191903	0.35982008995502246	
1.7374930451150745E12	0.22720619504314626	0.03614457831325302	9.809500977613082	0.0643929193247745	-0.07438512297540491	9.626774357086909	-0.09045921180198742	0.5631936392247805	-0.14244022868334144	0.25487256371814093	-1.0464767616191903	0.35982008995502246	
1.7374930451200488E12	0.2029917490178693	0.024096385542168676	9.821307025923913	0.0643929193247745	-0.07438512297540491	9.626774357086909	-0.2768301817001617	0.6460162332284247	0.11793394336992061	0.2623688155922039	-1.0044977511244377	0.272863568215892	
1.737493045125023E12	0.23901224335397786	0.060240963855421686	9.83371542363836	0.05778398831476783	-0.050389922015596875	9.610800584261607	-0.01492848040679261	0.5631936392247805	-0.038545527467752895	0.2623688155922039	-1.0044977511244377	0.272863568215892	
1.7374930451299973E12	0.22684478540097797	-0.024096385542168676	9.845641941829914	0.05778398831476783	-0.050389922015596875	9.610800584261607	-0.2275292169337547	0.5963226768262382	-0.21798182882973696	0.24437781109445278	-1.0419790104947526	0.3583208395802099	
1.7374930451349714E12	0.20275080925642375	0.03614457831325302	9.845401002068469	0.06498777063381325	-0.050389922015596875	9.597031791634972	-0.07512184036472357	0.2981613384131191	-0.14478380426271276	0.24437781109445278	-1.0419790104947526	0.3583208395802099	
1.7374930451399456E12	0.21515920697086915	0.024096385542168676	9.809380507732358	0.06498777063381325	-0.050389922015596875	9.597031791634972	-0.12150806717321158	0.44724200761967864	-0.10034182785495209	0.2698650674662669	-1.010494752623688	0.280359820089955	
1.73749304514492E12	0.19106523082631494	0.03614457831325302	9.809139567970913	0.05104435360530987	-0.0647870425914817	9.60136199640887	-0.09102427329048704	0.3644194136160344	-0.08593407983337908	0.2698650674662669	-1.010494752623688	0.280359820089955	
1.737493045149894E12	0.19106523082631494	0.060240963855421686	9.809139567970913	0.05104435360530987	-0.0647870425914817	9.60136199640887	-0.22738298319966196	0.5963226768262382	-0.23260520223901004	0.24737631184407796	-1.0299850074962518	0.35082458770614694	
1.7374930451548684E12	0.2150387370901464	0.012048192771084338	9.821427495804635	0.04610153219867666	-0.055188962207558485	9.617556184523442	-0.10648138053134855	0.3644194136160344	-0.07161692389424137	0.24737631184407796	-1.0299850074962518	0.35082458770614694	
1.7374930451598425E12	0.23925318311542337	-0.04819277108433735	9.809621447493805	0.04610153219867666	-0.055188962207558485	9.617556184523442	0.04778563156448955	0.4803710452211363	-0.1843824520079132	0.2638680659670165	-1.0134932533733134	0.28785607196401797	
1.7374930451648167E12	0.23901224335397786	-0.012048192771084338	9.83371542363836	0.06466440269288629	-0.04799040191961607	9.613200188681322	0.059434037236316295	0.5466291204240517	0.18217054895642623	0.2638680659670165	-1.0134932533733134	0.28785607196401797	
1.737493045169791E12	0.25117970130697775	0.024096385542168676	9.821788905446803	0.06466440269288629	-0.04799040191961607	9.613200188681322	-0.12109089553946063	0.6625807520291536	-0.14205899123004717	0.2593703148425787	-1.0434782608695652	0.3448275862068965	
1.7374930451747651E12	0.19082429106486942	0.0963855421686747	9.833233544115467	0.06207959403148952	-0.052789442111577684	9.626967180642614	-0.19910097593160808	0.5963226768262382	0.0019812072496302197	0.2593703148425787	-1.0434782608695652	0.3448275862068965	
1.7374930451797395E12	0.20250986949497818	0.07228915662650603	9.869494978213021	0.06207959403148952	-0.052789442111577684	9.626967180642614	0.032456540730505405	0.6625807520291536	-0.18286693675651272	0.2638680659670165	-1.0014992503748126	0.2848575712143928	
1.7374930451847136E12	0.21479779732870086	0.04819277108433735	9.84552147194919	0.05806122937957062	-0.052789442111577684	9.59693853102147	0.2144587159331131	0.3975484512174921	-0.006361639253117763	0.2638680659670165	-1.0014992503748126	0.2848575712143928	
1.7374930451896877E12	0.17865683311186953	0.03614457831325302	9.845160062307023	0.05806122937957062	-0.052789442111577684	9.59693853102147	-0.18436344451661865	0.4803710452211363	0.05962163389769879	0.2563718140929535	-1.0359820089955023	0.3448275862068965	
1.737493045194662E12	0.17937965239620615	0.04819277108433735	9.772878133873359	0.0671122701500832	-0.050389922015596875	9.60628025693002	-0.013868409613712775	0.19877422560874605	-0.14455260677573628	0.2563718140929535	-1.0359820089955023	0.3448275862068965	
1.7374930451996362E12	0.23901224335397786	-0.024096385542168676	9.83371542363836	0.0671122701500832	-0.050389922015596875	9.60628025693002	-0.014466593515331232	0.3312903760145768	-0.08473421661389055	0.2638680659670165	-1.0179910044977512	0.2863568215892054	
1.7374930452046106E12	0.17853636323114674	0.03614457831325302	9.8572070503793	0.07870439174615634	-0.055188962207558485	9.60404138266909	-0.029220686136880104	0.612887195626967	-0.14071852260601742	0.2638680659670165	-1.0179910044977512	0.2863568215892054	
1.7374930452095847E12	0.19082429106486942	0.03614457831325302	9.833233544115467	0.07870439174615634	-0.055188962207558485	9.60404138266909	-0.2880349178077424	0.5300646016233228	-0.2929860140190206	0.2563718140929535	-1.0374812593703149	0.33883058470764615	
1.7374930452145588E12	0.19106523082631494	0.08433734939759037	9.809139567970913	0.06928625519888046	-0.06718656268746251	9.613054445598703	-0.03050532345125179	0.2981613384131191	-0.012254791168848794	0.2563718140929535	-1.0374812593703149	0.33883058470764615	
1.7374930452195332E12	0.23913271323470062	0.0	9.821668435566082	0.06928625519888046	-0.06718656268746251	9.613054445598703	-0.09193148586685038	0.6625807520291536	0.004787177802954528	0.26686656671664166	-1.0089955022488755	0.2833583208395802	
1.7374930452245073E12	0.14299774841792928	0.024096385542168676	9.796610700375746	0.05067341936408595	-0.055188962207558485	9.619908708470067	-0.015667929680535972	0.6460162332284247	0.035399399906583424	0.26686656671664166	-1.0089955022488755	0.2833583208395802	
1.7374930452294817E12	0.20323268877931483	0.03614457831325302	9.79721304977936	0.05067341936408595	-0.055188962207558485	9.619908708470067	-0.07747814131676668	0.46380652642040743	0.09084629094159843	0.2608695652173913	-1.0464767616191903	0.3493253373313343	
1.7374930452344558E12	0.20335315866003761	0.060240963855421686	9.785166061707082	0.05575126274268871	-0.04799040191961607	9.596963421757021	-0.16860227696298005	0.3644194136160344	0.014898446680855692	0.2608695652173913	-1.0464767616191903	0.3493253373313343	
1.73749304523943E12	0.2627448098563637	-0.04819277108433735	9.870097327616635	0.05575126274268871	-0.04799040191961607	9.596963421757021	0.04370599209579656	0.3312903760145768	0.22358149486138595	0.2638680659670165	-1.0209895052473763	0.29385307346326833	
1.7374930452444043E12	0.2509387615455322	-0.03614457831325302	9.84588288159136	0.0442052680227398	-0.04319136172765446	9.59689595221174	-0.38253070994136834	0.513500082822594	-0.031768209538511324	0.2638680659670165	-1.0209895052473763	0.29385307346326833	
1.7374930452493784E12	0.22696525528170075	-0.03614457831325302	9.833594953757636	0.0442052680227398	-0.04319136172765446	9.59689595221174	-0.10530323005532699	0.28159681961239025	-0.18943197149639698	0.2623688155922039	-1.0419790104947526	0.3403298350824588	
1.7374930452543528E12	0.10685678420109795	0.0	9.796249290733577	0.0600454290352376	-0.04319136172765446	9.613201989346665	-0.23044064265036177	0.46380652642040743	0.07316074283097158	0.2623688155922039	-1.0419790104947526	0.3403298350824588	
1.737493045259327E12	0.19094476094559218	0.04819277108433735	9.82118655604319	0.0600454290352376	-0.04319136172765446	9.613201989346665	0.04631501362028253	0.5631936392247805	-0.03732065758721139	0.2698650674662669	-1.0224887556221889	0.29985007496251875	
1.737493045264301E12	0.22684478540097797	0.04819277108433735	9.845641941829914	0.048779554228436994	-0.055188962207558485	9.59912852414397	-0.198658962488018	0.5631936392247805	-0.0422201371093774	0.2698650674662669	-1.0224887556221889	0.29985007496251875	
1.7374930452692754E12	0.22684478540097797	0.060240963855421686	9.845641941829914	0.048779554228436994	-0.055188962207558485	9.59912852414397	-0.11946079489591334	0.44724200761967864	-0.30506905558477543	0.26686656671664166	-1.0344827586206897	0.3493253373313343	
1.7374930452742495E12	0.22684478540097797	0.07228915662650603	9.845641941829914	0.06489599668962245	-0.052789442111577684	9.601620488844514	-0.27314452817603646	0.34785489481530557	-0.2506314090426018	0.26686656671664166	-1.0344827586206897	0.3493253373313343	
1.7374930452792239E12	0.22732666492386905	0.060240963855421686	9.797453989540806	0.06489599668962245	-0.052789442111577684	9.601620488844514	0.015555313475931937	0.4803710452211363	-0.024137779446179897	0.2518740629685157	-1.0074962518740629	0.3028485757121439	
1.737493045284198E12	0.20311221889859205	0.04819277108433735	9.809260037851637	0.06480326312931645	-0.050389922015596875	9.606257166859812	-0.13550780543511362	0.4969355640218651	-0.23176156981176282	0.2518740629685157	-1.0074962518740629	0.3028485757121439	
1.7374930452891724E12	0.19082429106486942	0.07228915662650603	9.833233544115467	0.06480326312931645	-0.050389922015596875	9.606257166859812	-0.0771773932453015	0.38098393241676326	0.0607714837950814	0.280359820089955	-1.0269865067466266	0.3373313343328336	
1.7374930452941465E12	0.21552061661303748	0.012048192771084338	9.773239543515526	0.04841053921944341	-0.055188962207558485	9.61757927459365	-0.04700262803732184	0.46380652642040743	0.10608209929114229	0.280359820089955	-1.0269865067466266	0.3373313343328336	
1.7374930452991206E12	0.2633471592599776	0.03614457831325302	9.80986238725525	0.04841053921944341	-0.055188962207558485	9.61757927459365	-0.19880188398079887	0.5300646016233228	-0.027927987831292647	0.2563718140929535	-1.0134932533733134	0.3088455772113943	
1.737493045304095E12	0.17937965239620615	0.10843373493975904	9.772878133873359	0.05099294884055225	-0.03839232153569286	9.603932234646752	0.029405505762429354	0.46380652642040743	0.12223656005109226	0.2563718140929535	-1.0134932533733134	0.3088455772113943	
1.737493045309069E12	0.16733266432392904	0.12048192771084337	9.772757663992635	0.05099294884055225	-0.03839232153569286	9.603932234646752	0.1511431078189006	0.6460162332284247	0.19962489958007662	0.27586206896551724	-1.0419790104947526	0.335832083958021	
1.7374930453140435E12	0.23937365299614616	0.04819277108433735	9.79757445942153	0.0463797328795946	-0.06238752249550089	9.603646150477545	-0.3204164379923605	0.5797581580255093	-0.11762113185123171	0.27586206896551724	-1.0419790104947526	0.335832083958021	
1.7374930453190176E12	0.2513001711877005	0.03614457831325302	9.809741917374527	0.0463797328795946	-0.06238752249550089	9.603646150477545	-0.18227311310226593	0.04969355640218651	-0.14941150753757293	0.2338830584707646	-1.025487256371814	0.3103448275862069	
1.7374930453239917E12	0.21564108649376024	0.0	9.76119255544325	0.06032267010004036	-0.04559088182363527	9.599339936106524	0.06088478173265201	0.6625807520291536	0.03709609932285447	0.2338830584707646	-1.025487256371814	0.3103448275862069	
1.737493045328966E12	0.1917880501106516	0.024096385542168676	9.73685763953725	0.06032267010004036	-0.04559088182363527	9.599339936106524	0.2144587159331131	0.3975484512174921	-0.006361639253117763	0.2848575712143928	-1.025487256371814	0.3313343328335832	
1.7374930453339402E12	0.2270857251624235	0.0	9.821547965685358	0.06027798264808895	-0.052789442111577684	9.601574308704098	-0.16789926234366742	0.6460162332284247	-0.0554030152504089	0.2848575712143928	-1.025487256371814	0.3313343328335832	
1.7374930453389146E12	0.21527967685159194	0.024096385542168676	9.797333519660082	0.06027798264808895	-0.052789442111577684	9.601574308704098	-0.23217888625291513	0.2981613384131191	0.24698510308630703	0.22938530734632684	-1.0344827586206897	0.3118440779610195	
1.7374930453438887E12	0.19094476094559218	-0.012048192771084338	9.82118655604319	0.05533612085757092	-0.04799040191961607	9.617720516012911	-0.22924261872646892	0.1822097068080172	-0.046641649558314055	0.22938530734632684	-1.0344827586206897	0.3118440779610195	
