"sep=	"
Shimmer_B5B6_TimestampSync_Unix_CAL	Shimmer_B5B6_Accel_LN_X_CAL	Shimmer_B5B6_Accel_LN_Y_CAL	Shimmer_B5B6_Accel_LN_Z_CAL	Shimmer_B5B6_Accel_WR_X_CAL	Shimmer_B5B6_Accel_WR_Y_CAL	Shimmer_B5B6_Accel_WR_Z_CAL	Shimmer_B5B6_Battery_CAL	Shimmer_B5B6_Ext_Exp_A6_CAL	Shimmer_B5B6_Gyro_X_CAL	Shimmer_B5B6_Gyro_Y_CAL	Shimmer_B5B6_Gyro_Z_CAL	Shimmer_B5B6_Mag_X_CAL	Shimmer_B5B6_Mag_Y_CAL	Shimmer_B5B6_Mag_Z_CAL	Shimmer_B5B6_Pressure_BMP280_CAL	Shimmer_B5B6_Temperature_BMP280_CAL	
ms	m/(s^2)	m/(s^2)	m/(s^2)	m/(s^2)	m/(s^2)	m/(s^2)	mV	mV	deg/s	deg/s	deg/s	local_flux	local_flux	local_flux	kPa	Degrees Celsius	
1.7375811364120461E12	-9.719512195121952	-0.16867469879518074	-0.21686746987951808	0.15080789946140036	-9.599042489527228	-0.2872531418312388	4142.124542124542	1690.10989010989	-13.862595419847327	3.3740458015267176	0.7938931297709924	-0.22338830584707645	-0.22638680659670163	-0.2863568215892054	100.52788764457998	34.01249206997454	
1.7375811364170203E12	-9.634146341463415	-0.22891566265060243	-0.26506024096385544	0.1843207660083782	-9.539198084979054	-0.31597845601436264	4146.520146520146	1693.7728937728937	-15.038167938931297	3.480916030534351	0.183206106870229	-0.22788605697151423	-0.22638680659670163	-0.29685157421289354	100.52788764457998	34.01249206997454	
1.7375811364219944E12	-9.621951219512196	-0.27710843373493976	-0.24096385542168675	0.29204069419509276	-9.500897666068223	-0.3064033512866547	4136.263736263736	1684.9816849816848	-16.33587786259542	3.312977099236641	-0.030534351145038167	-0.22788605697151423	-0.22638680659670163	-0.29685157421289354	100.52788764457998	34.01249206997454	
1.7375811364269683E12	-9.585365853658537	-0.3734939759036145	-0.26506024096385544	0.31358467983243565	-9.474566128067025	-0.3016157989228007	4146.520146520146	1690.8424908424906	-16.916030534351144	3.2213740458015265	-0.3053435114503817	-0.2338830584707646	-0.22338830584707645	-0.2908545727136432	100.52788764457998	34.01249206997454	
1.7375811364319424E12	-9.573170731707318	-0.42168674698795183	-0.2530120481927711	0.4260921603830042	-9.46259724715739	-0.2585278276481149	4143.589743589743	1687.9120879120878	-17.297709923664122	2.931297709923664	-0.7633587786259541	-0.2338830584707646	-0.22338830584707645	-0.2908545727136432	100.52788764457998	34.01249206997454	
1.7375811364369163E12	-9.585365853658537	-0.5060240963855422	-0.22891566265060243	0.473967684021544	-9.515260323159785	-0.2992220227408737	4143.589743589743	1686.4468864468863	-17.48091603053435	2.5343511450381677	-0.8244274809160305	-0.22788605697151423	-0.22938530734632684	-0.29385307346326833	100.52264413211337	34.01249206997454	
1.7375811364418904E12	-9.609756097560975	-0.5662650602409639	-0.21686746987951808	0.5505685218432076	-9.536804308797127	-0.236983842010772	4128.937728937729	1668.8644688644688	-17.221374045801525	1.9083969465648853	-0.9312977099236641	-0.22788605697151423	-0.22938530734632684	-0.29385307346326833	100.52264413211337	34.01249206997454	
1.7375811364468643E12	-9.634146341463415	-0.6265060240963856	-0.21686746987951808	0.5888689407540395	-9.524835427887492	-0.22740873728306402	4137.728937728937	1671.0622710622708	-17.175572519083968	0.7175572519083969	-1.1908396946564885	-0.22638680659670163	-0.2338830584707646	-0.29535232383808097	100.52264413211337	34.01249206997454	
1.7375811364518384E12	-9.670731707317074	-0.6987951807228916	-0.18072289156626506	0.6582884500299222	-9.55834829443447	-0.21543985637342908	4142.124542124542	1683.5164835164835	-16.717557251908396	-0.549618320610687	-1.5877862595419847	-0.22638680659670163	-0.2338830584707646	-0.29535232383808097	100.52526588716368	34.01249206997454	
1.7375811364568123E12	-9.682926829268293	-0.7349397590361446	-0.08433734939759037	0.6918013165769	-9.620586475164572	-0.11968880909634949	4145.054945054945	1690.10989010989	-16.35114503816794	-1.9236641221374045	-2.4732824427480917	-0.22638680659670163	-0.2383808095952024	-0.29985007496251875	100.52526588716368	34.01249206997454	
1.7375811364617864E12	-9.74390243902439	-0.783132530120482	0.012048192771084338	0.7348892878515858	-9.675643327348892	-0.02872531418312388	4145.054945054945	1692.3076923076922	-16.259541984732824	-3.5725190839694654	-3.2213740458015265	-0.22638680659670163	-0.2383808095952024	-0.29985007496251875	100.52526588716368	34.01249206997454	
1.7375811364667605E12	-9.829268292682928	-0.8072289156626506	0.08433734939759037	0.7827648114901257	-9.75703171753441	0.10293237582286056	4108.424908424908	1841.0256410256409	-15.954198473282442	-4.427480916030534	-4.412213740458015	-0.22488755622188905	-0.2368815592203898	-0.3118440779610195	100.52788764457998	34.01249206997454	
1.7375811364717344E12	-9.939024390243903	-0.8915662650602411	0.1566265060240964	0.8497905445840813	-9.888689407540395	0.1172950329144225	4130.40293040293	1737.7289377289376	-16.381679389312975	-5.877862595419847	-4.8396946564885495	-0.22488755622188905	-0.2368815592203898	-0.3118440779610195	100.52788764457998	34.01249206997454	
1.7375811364767085E12	-10.060975609756097	-0.9036144578313253	0.16867469879518074	0.8282465589467385	-10.008378216636745	0.12208258527827648	4142.124542124542	1710.6227106227104	-16.82442748091603	-7.374045801526718	-5.603053435114504	-0.22788605697151423	-0.23238380809595202	-0.29685157421289354	100.52788764457998	34.01249206997454	
1.7375811364816824E12	-10.195121951219512	-0.7951807228915663	0.13253012048192772	0.7684021543985637	-10.111310592459605	0.1364452423698384	4139.194139194139	1693.7728937728937	-16.82442748091603	-8.076335877862595	-6.809160305343511	-0.22788605697151423	-0.23238380809595202	-0.29685157421289354	100.52264413211337	34.01249206997454	
1.7375811364866565E12	-10.28048780487805	-0.6867469879518072	0.1566265060240964	0.6343506882106523	-10.187911430281268	0.13405146618791142	4121.611721611721	1859.3406593406592	-16.27480916030534	-8.580152671755725	-7.541984732824427	-0.2353823088455772	-0.23238380809595202	-0.29535232383808097	100.52264413211337	34.01249206997454	
1.7375811364916304E12	-10.414634146341463	0.20481927710843376	0.3253012048192771	-0.943147815679234	-10.288450029922203	0.4428485936564931	4130.40293040293	1745.054945054945	-11.17557251908397	-7.49618320610687	12.0	-0.2353823088455772	-0.23238380809595202	-0.29535232383808097	100.52264413211337	34.01249206997454	
1.7375811364966045E12	-10.28048780487805	-0.5421686746987953	0.21686746987951808	1.0508677438659486	-10.18551765409934	0.1412327947336924	4134.798534798534	1701.098901098901	-11.114503816793892	-6.412213740458015	-5.435114503816794	-0.21889055472263869	-0.22188905547226387	-0.29385307346326833	100.52788764457998	34.01249206997454	
1.7375811365015786E12	-10.329268292682928	-0.6867469879518072	0.14457831325301207	0.6319569120287253	-10.247755834829443	0.12926391382405744	4134.798534798534	1682.7838827838827	-11.282442748091603	-9.49618320610687	-7.2824427480916025	-0.21889055472263869	-0.22188905547226387	-0.29385307346326833	100.52788764457998	34.01249206997454	
1.7375811365065525E12	-10.317073170731708	-0.4819277108433735	0.18072289156626506	0.3518850987432675	-10.2262118491921	0.1891083183722322	4130.40293040293	1672.5274725274724	-9.893129770992367	-9.725190839694656	-7.145038167938931	-0.23238380809595202	-0.22188905547226387	-0.2908545727136432	100.52788764457998	34.01249206997454	
1.7375811365115266E12	-10.195121951219512	-0.5060240963855422	0.26506024096385544	0.466786355475763	-10.104129263913824	0.22740873728306402	4136.263736263736	1676.1904761904761	-9.31297709923664	-8.229007633587786	-9.725190839694656	-0.23238380809595202	-0.22188905547226387	-0.2908545727136432	100.52264413211337	34.01249206997454	
1.7375811365165005E12	-10.158536585365853	-0.4819277108433735	0.24096385542168675	0.3997606223818073	-10.029922202274086	0.21783363255535607	4142.124542124542	1685.7142857142856	-9.206106870229007	-6.33587786259542	-9.755725190839694	-0.22788605697151423	-0.2338830584707646	-0.30134932533733133	100.52264413211337	34.01249206997454	
1.7375811365214746E12	-10.060975609756097	-0.5180722891566265	0.18072289156626506	0.49790544584081387	-9.929383602633154	0.13405146618791142	4136.263736263736	1682.051282051282	-9.221374045801527	-6.076335877862595	-12.076335877862595	-0.22788605697151423	-0.2338830584707646	-0.30134932533733133	100.52264413211337	34.01249206997454	
1.7375811365264485E12	-9.987804878048781	-0.42168674698795183	0.10843373493975904	0.3231597845601436	-9.86953919808498	0.09096349491322561	4139.194139194139	1681.3186813186812	-8.916030534351144	-6.061068702290076	-11.81679389312977	-0.22488755622188905	-0.22488755622188905	-0.30134932533733133	100.52264413211337	34.01249206997454	
1.7375811365314226E12	-9.914634146341463	-0.3373493975903615	0.0963855421686747	0.31119090365050867	-9.778575703171754	0.09814482345900657	4128.937728937729	1666.6666666666665	-8.67175572519084	-5.969465648854961	-11.221374045801527	-0.22488755622188905	-0.22488755622188905	-0.30134932533733133	100.52264413211337	34.01249206997454	
1.7375811365363967E12	-9.841463414634147	-0.3253012048192771	0.0963855421686747	0.24895272292040693	-9.680430879712747	0.07420706163973669	4112.820512820513	1841.0256410256409	-8.564885496183205	-5.847328244274809	-12.106870229007633	-0.2338830584707646	-0.22638680659670163	-0.31634182908545727	100.52264413211337	34.01249206997454	
1.7375811365413706E12	-9.76829268292683	-0.2530120481927711	0.13253012048192772	0.2824655894673848	-9.603830041891083	0.11011370436864153	4105.494505494506	1901.8315018315018	-7.511450381679389	-5.49618320610687	-11.038167938931297	-0.2338830584707646	-0.22638680659670163	-0.31634182908545727	100.52264413211337	34.01249206997454	
1.7375811365463447E12	-9.719512195121952	-0.3373493975903615	0.16867469879518074	0.2848593656493118	-9.599042489527228	0.1699581089168163	4112.820512820513	1938.4615384615383	-7.1603053435114505	-5.236641221374046	-11.31297709923664	-0.2143928035982009	-0.22188905547226387	-0.29385307346326833	100.52264413211337	34.01249206997454	
1.7375811365513186E12	-9.707317073170731	-0.3734939759036145	0.1927710843373494	0.36624775583482944	-9.618192698982645	0.1891083183722322	4128.937728937729	1772.8937728937728	-7.236641221374046	-4.641221374045801	-10.778625954198473	-0.2143928035982009	-0.22188905547226387	-0.29385307346326833	100.52264413211337	34.01249206997454	
1.7375811365562927E12	-9.74390243902439	-0.4819277108433735	0.21686746987951808	0.4907241172950329	-9.666068222621185	0.14602034709754638	4120.14652014652	1887.9120879120878	-7.511450381679389	-3.83206106870229	-11.526717557251908	-0.22938530734632684	-0.2338830584707646	-0.29685157421289354	100.52788764457998	34.01249206997454	
1.7375811365612666E12	-9.792682926829269	-0.5662650602409639	0.14457831325301207	0.5338120885697187	-9.699581089168163	0.05505685218432076	4121.611721611721	1939.9267399267399	-8.366412213740457	-3.5572519083969465	-11.557251908396946	-0.22938530734632684	-0.2338830584707646	-0.29685157421289354	100.52788764457998	34.01249206997454	
1.7375811365662407E12	-9.841463414634147	-0.6024096385542169	0.0963855421686747	0.6247755834829444	-9.70915619389587	0.026331538001196888	4127.472527472527	1772.8937728937728	-9.297709923664122	-3.3587786259541983	-11.66412213740458	-0.22938530734632684	-0.22638680659670163	-0.30134932533733133	100.52788764457998	34.01249206997454	
1.7375811365712148E12	-9.817073170731708	-0.710843373493976	0.0	0.7109515260323159	-9.697187312986236	-0.045481747456612806	4136.263736263736	1717.216117216117	-9.709923664122137	-3.618320610687023	-13.022900763358779	-0.22938530734632684	-0.22638680659670163	-0.30134932533733133	100.52264413211337	34.01249206997454	
1.7375811365761887E12	-9.78048780487805	-0.7349397590361446	-0.060240963855421686	0.6535008976660682	-9.682824655894674	-0.12208258527827648	4130.40293040293	1687.179487179487	-10.091603053435113	-3.8625954198473282	-13.648854961832061	-0.22788605697151423	-0.22188905547226387	-0.29685157421289354	100.52264413211337	34.01249206997454	
1.7375811365811628E12	-9.76829268292683	-0.6867469879518072	-0.060240963855421686	0.5745062836624776	-9.651705565529623	-0.08378216636744464	4128.937728937729	1669.5970695970695	-9.358778625954198	-3.679389312977099	-12.213740458015266	-0.22788605697151423	-0.22188905547226387	-0.29685157421289354	100.52264413211337	34.01249206997454	
1.7375811365861367E12	-9.731707317073171	-0.6506024096385542	-0.024096385542168676	0.5888689407540395	-9.567923399162177	-0.07420706163973669	4117.216117216117	1843.2234432234432	-8.687022900763358	-3.9083969465648853	-11.16030534351145	-0.22938530734632684	-0.22938530734632684	-0.29535232383808097	100.52788764457998	34.01249206997454	
1.7375811365911108E12	-9.646341463414634	-0.6385542168674699	-0.024096385542168676	0.6104129263913823	-9.539198084979054	-0.038300418910831836	4152.380952380952	1763.3699633699632	-8.229007633587786	-4.106870229007633	-10.412213740458014	-0.22938530734632684	-0.22938530734632684	-0.29535232383808097	100.52788764457998	34.01249206997454	
1.7375811365960847E12	-9.609756097560975	-0.6144578313253012	-0.03614457831325302	0.5481747456612807	-9.493716337522441	-0.059844404548174746	4146.520146520146	1723.8095238095236	-7.2824427480916025	-4.6106870229007635	-9.389312977099236	-0.22788605697151423	-0.2383808095952024	-0.3043478260869565	100.52788764457998	34.01249206997454	
1.7375811366010588E12	-9.573170731707318	-0.6385542168674699	-0.024096385542168676	0.5649311789347696	-9.474566128067025	-0.026331538001196888	4152.380952380952	1715.7509157509157	-7.541984732824427	-4.67175572519084	-8.50381679389313	-0.22788605697151423	-0.2383808095952024	-0.3043478260869565	100.52788764457998	34.01249206997454	
1.7375811366060327E12	-9.585365853658537	-0.6265060240963856	0.012048192771084338	0.5457809694793536	-9.445840813883901	-0.00718132854578097	4134.798534798534	1688.6446886446886	-7.419847328244274	-4.625954198473282	-7.786259541984733	-0.22938530734632684	-0.23238380809595202	-0.31334332833583206	100.52788764457998	34.01249206997454	
1.7375811366110068E12	-9.536585365853659	-0.6265060240963856	0.04819277108433735	0.5745062836624776	-9.433871932974267	0.02154398563734291	4145.054945054945	1692.3076923076922	-7.679389312977099	-4.625954198473282	-7.465648854961832	-0.22938530734632684	-0.23238380809595202	-0.31334332833583206	100.52788764457998	34.01249206997454	
1.737581136615981E12	-9.536585365853659	-0.6506024096385542	0.0963855421686747	0.5960502692998204	-9.453022142429683	0.040694195092758824	4139.194139194139	1685.7142857142856	-8.183206106870228	-4.351145038167939	-6.870229007633587	-0.22638680659670163	-0.22938530734632684	-0.29685157421289354	100.52526588716368	34.01249206997454	
1.7375811366209548E12	-9.536585365853659	-0.674698795180723	0.08433734939759037	0.6319569120287253	-9.45541591861161	0.06702573309395571	4140.65934065934	1684.249084249084	-8.366412213740457	-4.412213740458015	-6.534351145038167	-0.22638680659670163	-0.22938530734632684	-0.29685157421289354	100.52526588716368	34.01249206997454	
1.737581136625929E12	-9.560975609756097	-0.7228915662650602	0.14457831325301207	0.6654697785757031	-9.433871932974267	0.13883901855176542	4136.263736263736	1681.3186813186812	-8.839694656488549	-4.8396946564885495	-6.366412213740458	-0.2338830584707646	-0.22188905547226387	-0.29385307346326833	100.52526588716368	34.01249206997454	
1.7375811366309028E12	-9.560975609756097	-0.7349397590361446	0.16867469879518074	0.706163973668462	-9.469778575703172	0.18192698982645122	4111.355311355311	1841.7582417582416	-9.526717557251908	-5.007633587786259	-5.801526717557252	-0.2338830584707646	-0.22188905547226387	-0.29385307346326833	100.52526588716368	34.01249206997454	
1.737581136635877E12	-9.548780487804878	-0.7951807228915663	0.24096385542168675	0.7947336923997605	-9.43147815679234	0.24177139437462597	4111.355311355311	1908.4249084249084	-10.427480916030534	-5.374045801526718	-5.343511450381679	-0.2353823088455772	-0.22938530734632684	-0.29535232383808097	100.52526588716368	34.01249206997454	
1.7375811366408508E12	-9.609756097560975	-0.22891566265060243	0.30120481927710846	0.6582884500299222	-9.45541591861161	0.4045481747456613	4105.494505494506	1929.6703296703295	-10.778625954198473	-4.1679389312977095	5.633587786259541	-0.2353823088455772	-0.22938530734632684	-0.29535232383808097	100.52526588716368	34.01249206997454	
1.737581136645825E12	-9.573170731707318	-0.3855421686746988	0.3253012048192771	0.34709754637941354	-9.551166965888688	0.3255535607420706	4140.65934065934	1784.6153846153845	-10.045801526717558	-0.549618320610687	5.297709923664122	-0.2368815592203898	-0.22638680659670163	-0.3058470764617691	100.52788764457998	34.01249206997454	
1.737581136650799E12	-9.5	-1.2409638554216869	0.07228915662650603	1.5224416517055654	-9.354877318970676	-0.011968880909634948	4145.054945054945	1731.8681318681317	-11.404580152671755	-5.862595419847328	-3.32824427480916	-0.2368815592203898	-0.22638680659670163	-0.3058470764617691	100.52788764457998	34.01249206997454	
1.737581136655773E12	-9.597560975609756	-0.9879518072289157	0.07228915662650603	0.8713345302214243	-9.508078994614003	0.026331538001196888	4134.798534798534	1695.2380952380952	-11.099236641221374	-8.0	-1.9541984732824427	-0.22638680659670163	-0.22638680659670163	-0.29985007496251875	100.52788764457998	34.01249206997454	
1.737581136660747E12	-9.621951219512196	-0.963855421686747	0.18072289156626506	0.8761220825852782	-9.520047875523638	0.15320167564332735	4131.868131868132	1674.7252747252746	-11.007633587786259	-6.778625954198473	-2.595419847328244	-0.22638680659670163	-0.22638680659670163	-0.29985007496251875	100.52264413211337	34.01249206997454	
1.737581136665721E12	-9.621951219512196	-1.0602409638554218	0.14457831325301207	1.0101735487731898	-9.543985637342908	0.1603830041891083	4128.937728937729	1664.4688644688645	-10.244274809160306	-5.862595419847328	-3.297709923664122	-0.23088455772113942	-0.21739130434782608	-0.29385307346326833	100.52264413211337	34.01249206997454	
1.737581136670695E12	-9.634146341463415	-1.1325301204819278	0.0963855421686747	1.16098144823459	-9.546379413524836	0.05505685218432076	4137.728937728937	1669.5970695970695	-9.679389312977099	-6.137404580152672	-5.648854961832061	-0.23088455772113942	-0.21739130434782608	-0.29385307346326833	100.52264413211337	34.01249206997454	
1.737581136675669E12	-9.670731707317074	-0.9759036144578314	0.10843373493975904	0.8833034111310593	-9.591861160981448	0.08856971873129862	4131.868131868132	1663.003663003663	-8.839694656488549	-6.961832061068702	-4.351145038167939	-0.22788605697151423	-0.22638680659670163	-0.3088455772113943	100.52788764457998	34.01249206997454	
1.737581136680643E12	-9.695121951219512	-0.9277108433734941	0.1566265060240964	0.8545780969479353	-9.584679832435667	0.10532615200478755	4133.333333333333	1665.9340659340658	-8.473282442748092	-7.450381679389313	-4.030534351145038	-0.22788605697151423	-0.22638680659670163	-0.3088455772113943	100.52788764457998	34.01249206997454	
1.7375811366856172E12	-9.682926829268293	-0.9156626506024097	0.14457831325301207	0.8665469778575703	-9.587073608617594	0.1603830041891083	4142.124542124542	1681.3186813186812	-8.13740458015267	-8.183206106870228	-3.6488549618320607	-0.23238380809595202	-0.22788605697151423	-0.3088455772113943	100.52788764457998	34.01249206997454	
1.737581136690591E12	-9.646341463414634	-0.9397590361445783	0.1566265060240964	0.8569718731298623	-9.553560742070616	0.1891083183722322	4130.40293040293	1671.7948717948716	-7.8473282442748085	-9.068702290076336	-3.3740458015267176	-0.23238380809595202	-0.22788605697151423	-0.3088455772113943	100.52526588716368	34.01249206997454	
1.7375811366955652E12	-9.634146341463415	-0.9397590361445783	0.18072289156626506	0.8426092160383004	-9.539198084979054	0.1172950329144225	4142.124542124542	1683.5164835164835	-7.648854961832061	-9.435114503816793	-3.3435114503816794	-0.23088455772113942	-0.22788605697151423	-0.29985007496251875	100.52526588716368	34.01249206997454	
1.737581136700539E12	-9.634146341463415	-0.9156626506024097	0.14457831325301207	0.8402154398563734	-9.524835427887492	0.11968880909634949	4130.40293040293	1672.5274725274724	-7.358778625954198	-10.320610687022901	-3.2519083969465647	-0.23088455772113942	-0.22788605697151423	-0.29985007496251875	100.52526588716368	34.01249206997454	
1.7375811367055132E12	-9.609756097560975	-0.9156626506024097	0.10843373493975904	0.8473967684021544	-9.539198084979054	0.023937761819269897	4143.589743589743	1679.8534798534797	-7.343511450381679	-10.885496183206106	-3.0381679389312977	-0.22038980509745126	-0.21739130434782608	-0.29685157421289354	100.52264413211337	34.01249206997454	
1.737581136710487E12	-9.621951219512196	-0.9036144578313253	0.08433734939759037	0.8497905445840813	-9.508078994614003	0.05745062836624776	4139.194139194139	1681.3186813186812	-7.190839694656488	-11.374045801526718	-2.3053435114503817	-0.22038980509745126	-0.21739130434782608	-0.29685157421289354	100.52264413211337	34.01249206997454	
1.7375811367154612E12	-9.609756097560975	-0.8915662650602411	0.060240963855421686	0.8210652304009575	-9.491322561340514	0.0	4127.472527472527	1665.9340659340658	-6.748091603053435	-11.923664122137405	-2.0763358778625953	-0.22338830584707645	-0.22938530734632684	-0.3043478260869565	100.52264413211337	34.01249206997454	
1.737581136720435E12	-9.585365853658537	-0.8313253012048193	0.07228915662650603	0.7875523638539796	-9.4721723518851	0.009575104727707959	4133.333333333333	1667.3992673992673	-6.519083969465648	-12.6412213740458	-1.7862595419847327	-0.22338830584707645	-0.22938530734632684	-0.3043478260869565	100.53050940436226	34.01249206997454	
1.7375811367254092E12	-9.560975609756097	-0.8072289156626506	0.04819277108433735	0.7468581687612208	-9.46259724715739	0.0	4140.65934065934	1676.923076923077	-6.152671755725191	-13.374045801526718	-1.4198473282442747	-0.22038980509745126	-0.2368815592203898	-0.3043478260869565	100.53050940436226	34.01249206997454	
1.7375811367303833E12	-9.548780487804878	-0.7951807228915663	0.012048192771084338	0.7109515260323159	-9.438659485338121	-0.02154398563734291	4115.750915750916	1846.153846153846	-6.106870229007633	-13.954198473282442	-1.1603053435114503	-0.22038980509745126	-0.2368815592203898	-0.3043478260869565	100.53050940436226	34.01249206997454	
1.7375811367353572E12	-9.536585365853659	-0.783132530120482	0.0	0.703770197486535	-9.426690604428485	-0.033512866546977854	4133.333333333333	1740.6593406593406	-6.183206106870228	-14.65648854961832	-1.0229007633587786	-0.22788605697151423	-0.2338830584707646	-0.3043478260869565	100.52788764457998	34.01249206997454	
1.7375811367403313E12	-9.512195121951219	-0.746987951807229	0.012048192771084338	0.6678635547576302	-9.402752842609216	-0.038300418910831836	4142.124542124542	1711.3553113553112	-6.351145038167939	-14.702290076335878	-1.0381679389312977	-0.22788605697151423	-0.2338830584707646	-0.3043478260869565	100.52788764457998	34.01249206997454	
1.7375811367453052E12	-9.52439024390244	-0.7228915662650602	0.03614457831325302	0.6941950927588271	-9.369239976062238	-0.01436265709156194	4118.681318681319	1865.9340659340658	-6.870229007633587	-15.129770992366412	-0.9007633587786259	-0.22638680659670163	-0.2338830584707646	-0.2983508245877061	100.52788764457998	34.01249206997454	
1.7375811367502793E12	-9.5	-0.746987951807229	0.04819277108433735	0.7229204069419509	-9.36684619988031	0.011968880909634948	4111.355311355311	1918.6813186813185	-7.435114503816793	-15.236641221374045	-0.15267175572519084	-0.22788605697151423	-0.21889055472263869	-0.3058470764617691	100.52264413211337	34.01249206997454	
1.7375811367552532E12	-9.512195121951219	-0.7590361445783133	0.012048192771084338	0.7301017354877318	-9.409934171154998	-0.059844404548174746	4139.194139194139	1779.4871794871794	-8.534351145038167	-15.557251908396946	-0.015267175572519083	-0.22788605697151423	-0.21889055472263869	-0.3058470764617691	100.52264413211337	34.01249206997454	
1.7375811367602273E12	-9.548780487804878	-0.7590361445783133	-0.04819277108433735	0.696588868940754	-9.419509275882705	-0.09096349491322561	4140.65934065934	1723.0769230769229	-8.839694656488549	-16.290076335877863	0.5801526717557252	-0.2338830584707646	-0.22788605697151423	-0.3088455772113943	100.52264413211337	34.01249206997454	
1.7375811367652014E12	-9.548780487804878	-0.746987951807229	-0.12048192771084337	0.6558946738479952	-9.419509275882705	-0.1364452423698384	4139.194139194139	1698.168498168498	-8.580152671755725	-16.244274809160306	0.38167938931297707	-0.2338830584707646	-0.22788605697151423	-0.3088455772113943	100.52788764457998	34.01249206997454	
1.7375811367701753E12	-9.52439024390244	-0.7349397590361446	-0.13253012048192772	0.687013764213046	-9.433871932974267	-0.1627767803710353	4115.750915750916	1854.9450549450548	-8.244274809160306	-16.259541984732824	0.24427480916030533	-0.22038980509745126	-0.22038980509745126	-0.29685157421289354	100.52788764457998	34.01249206997454	
1.7375811367751494E12	-9.536585365853659	-0.7228915662650602	-0.10843373493975904	0.6798324356672651	-9.441053261520048	-0.13165769000598443	4143.589743589743	1754.5787545787546	-7.343511450381679	-15.98473282442748	0.2748091603053435	-0.22038980509745126	-0.22038980509745126	-0.29685157421289354	100.52788764457998	34.01249206997454	
1.7375811367801233E12	-9.548780487804878	-0.710843373493976	-0.08433734939759037	0.703770197486535	-9.433871932974267	-0.12208258527827648	4126.007326007326	1690.10989010989	-6.65648854961832	-15.66412213740458	-0.22900763358778625	-0.2338830584707646	-0.22338830584707645	-0.29985007496251875	100.52526588716368	34.01249206997454	
1.7375811367850974E12	-9.573170731707318	-0.746987951807229	-0.04819277108433735	0.698982645122681	-9.467384799521245	-0.08617594254937164	4112.820512820513	1851.2820512820513	-6.106870229007633	-15.083969465648854	0.030534351145038167	-0.2338830584707646	-0.22338830584707645	-0.29985007496251875	100.52526588716368	34.01249206997454	
1.7375811367900713E12	-9.573170731707318	-0.746987951807229	-0.012048192771084338	0.7205266307600239	-9.438659485338121	-0.033512866546977854	4130.40293040293	1741.3919413919414	-6.015267175572519	-14.6412213740458	-0.3053435114503817	-0.22938530734632684	-0.2383808095952024	-0.3043478260869565	100.52526588716368	34.01249206997454	
1.7375811367950454E12	-9.573170731707318	-0.746987951807229	0.03614457831325302	0.7157390783961699	-9.457809694793536	0.00718132854578097	4115.750915750916	1873.260073260073	-6.259541984732824	-14.717557251908396	-0.47328244274809156	-0.22938530734632684	-0.2383808095952024	-0.3043478260869565	100.52526588716368	34.01249206997454	
1.7375811368000195E12	-9.597560975609756	-0.7710843373493976	0.0963855421686747	0.7301017354877318	-9.469778575703172	0.06702573309395571	4123.076923076923	1934.065934065934	-6.442748091603053	-14.396946564885496	-0.6564885496183206	-0.22338830584707645	-0.23088455772113942	-0.2983508245877061	100.52526588716368	34.01249206997454	
1.7375811368049934E12	-9.585365853658537	-0.783132530120482	0.13253012048192772	0.7540394973070018	-9.47935368043088	0.0718132854578097	4114.285714285714	1947.9853479853477	-6.809160305343511	-14.290076335877862	-0.366412213740458	-0.22338830584707645	-0.23088455772113942	-0.2983508245877061	100.52526588716368	34.01249206997454	
1.7375811368099675E12	-9.597560975609756	-0.783132530120482	0.10843373493975904	0.7324955116696589	-9.524835427887492	0.052663076002393776	4123.076923076923	1966.3003663003662	-7.007633587786259	-13.541984732824426	-0.4580152671755725	-0.22188905547226387	-0.23088455772113942	-0.29985007496251875	100.52002237942904	34.01249206997454	
1.7375811368149414E12	-9.585365853658537	-0.7951807228915663	0.08433734939759037	0.7396768402154399	-9.522441651705565	0.01436265709156194	4114.285714285714	1961.9047619047617	-6.427480916030534	-14.274809160305344	-0.41221374045801523	-0.22188905547226387	-0.23088455772113942	-0.29985007496251875	100.52002237942904	34.01249206997454	
1.7375811368199155E12	-9.585365853658537	-0.8072289156626506	0.07228915662650603	0.7564332734889287	-9.474566128067025	0.052663076002393776	4121.611721611721	1971.4285714285713	-6.106870229007633	-14.763358778625953	-0.3969465648854962	-0.23238380809595202	-0.2338830584707646	-0.3088455772113943	100.52002237942904	34.01249206997454	
1.7375811368248894E12	-9.560975609756097	-0.855421686746988	0.08433734939759037	0.8090963494913226	-9.457809694793536	0.047875523638539794	4134.798534798534	1794.8717948717947	-5.190839694656488	-15.267175572519083	-0.7480916030534351	-0.23238380809595202	-0.2338830584707646	-0.3088455772113943	100.52788764457998	34.01249206997454	
1.7375811368298635E12	-9.560975609756097	-0.8795180722891567	0.07228915662650603	0.8138839018551766	-9.445840813883901	0.045481747456612806	4139.194139194139	1728.937728937729	-4.931297709923664	-15.725190839694656	-1.0381679389312977	-0.22938530734632684	-0.21889055472263869	-0.30134932533733133	100.52788764457998	34.01249206997454	
1.7375811368348376E12	-9.536585365853659	-0.963855421686747	0.10843373493975904	0.8976660682226212	-9.443447037701974	0.08856971873129862	4152.380952380952	1717.216117216117	-4.1679389312977095	-16.045801526717558	-0.9770992366412213	-0.22938530734632684	-0.21889055472263869	-0.30134932533733133	100.52788764457998	34.01249206997454	
1.7375811368398115E12	-9.548780487804878	-1.0	0.14457831325301207	0.9814482345900658	-9.46259724715739	0.1172950329144225	4147.985347985347	1709.8901098901097	-4.0	-16.793893129770993	-1.0076335877862594	-0.2383808095952024	-0.22338830584707645	-0.29985007496251875	100.53576083601585	34.05673704478541	
1.7375811368447856E12	-9.560975609756097	0.024096385542168676	0.28915662650602414	-1.151406343506882	-9.426690604428485	0.26570915619389585	4142.124542124542	1699.6336996336995	-4.045801526717557	-12.335877862595419	23.19083969465649	-0.2383808095952024	-0.22338830584707645	-0.29985007496251875	100.53576083601585	34.05673704478541	
1.7375811368497595E12	-9.548780487804878	-1.072289156626506	0.2530120481927711	2.135248354278875	-9.453022142429683	0.18192698982645122	4140.65934065934	1690.10989010989	-6.137404580152672	-13.755725190839694	3.2061068702290076	-0.2353823088455772	-0.22638680659670163	-0.3118440779610195	100.53576083601585	34.05673704478541	
1.7375811368547336E12	-9.463414634146341	-1.8313253012048194	0.08433734939759037	1.7570317175344106	-9.364452423698385	0.06941950927588271	4146.520146520146	1693.7728937728937	-3.801526717557252	-21.572519083969464	-4.488549618320611	-0.2353823088455772	-0.22638680659670163	-0.3118440779610195	100.53313888829541	34.05673704478541	
1.7375811368597075E12	-9.475609756097562	-1.457831325301205	0.21686746987951808	1.2256134051466188	-9.441053261520048	0.22022740873728305	4152.380952380952	1702.5641025641025	-3.9389312977099236	-21.725190839694655	-1.6335877862595418	-0.22488755622188905	-0.22188905547226387	-0.29685157421289354	100.53313888829541	34.05673704478541	
1.7375811368646816E12	-9.536585365853659	-1.3975903614457832	0.30120481927710846	1.3572710951526032	-9.445840813883901	0.2537402752842609	4142.124542124542	1695.970695970696	-3.9541984732824424	-20.65648854961832	-1.8931297709923662	-0.22488755622188905	-0.22188905547226387	-0.29685157421289354	100.53313888829541	34.05673704478541	
1.7375811368696555E12	-9.548780487804878	-1.421686746987952	0.21686746987951808	1.3596648713345303	-9.441053261520048	0.15320167564332735	4152.380952380952	1703.296703296703	-2.4732824427480917	-20.48854961832061	-1.2366412213740459	-0.23238380809595202	-0.22488755622188905	-0.30134932533733133	100.5278949999535	34.05673704478541	
1.7375811368746296E12	-9.536585365853659	-1.3734939759036144	0.18072289156626506	1.2926391382405744	-9.43147815679234	0.1843207660083782	4108.424908424908	1846.153846153846	-0.9618320610687022	-21.740458015267176	-1.465648854961832	-0.23238380809595202	-0.22488755622188905	-0.30134932533733133	100.5278949999535	34.05673704478541	
1.7375811368796038E12	-9.5	-1.349397590361446	0.26506024096385544	1.2806702573309394	-9.364452423698385	0.33512866546977854	4108.424908424908	1904.7619047619046	0.2900763358778626	-22.916030534351144	-2.015267175572519	-0.22038980509745126	-0.239880059970015	-0.29985007496251875	100.5278949999535	34.05673704478541	
1.7375811368845776E12	-9.487804878048781	-1.3614457831325302	0.39759036144578314	1.3093955715140635	-9.357271095152603	0.46199880311190905	4123.076923076923	1947.2527472527472	1.0381679389312977	-23.740458015267176	-3.129770992366412	-0.22038980509745126	-0.239880059970015	-0.29985007496251875	100.53838278610259	34.05673704478541	
1.7375811368895518E12	-9.451219512195122	-1.385542168674699	0.49397590361445787	1.3285457809694794	-9.350089766606821	0.5242369838420108	4128.937728937729	1777.2893772893772	1.6335877862595418	-24.687022900763356	-3.7709923664122136	-0.23238380809595202	-0.22638680659670163	-0.3043478260869565	100.53838278610259	34.05673704478541	
1.7375811368945256E12	-9.536585365853659	-1.4457831325301205	0.49397590361445787	1.4219030520646319	-9.37642130460802	0.48354278874925194	4137.728937728937	1715.7509157509157	1.0381679389312977	-26.793893129770993	-3.7557251908396947	-0.23238380809595202	-0.22638680659670163	-0.3043478260869565	100.53838278610259	34.05673704478541	
1.7375811368994998E12	-9.829268292682928	-1.4819277108433735	0.21686746987951808	1.429084380610413	-9.733093955715141	0.14602034709754638	4142.124542124542	1701.8315018315018	-1.6793893129770991	-28.580152671755723	-3.1908396946564883	-0.2368815592203898	-0.22488755622188905	-0.3088455772113943	100.54100473855567	34.05673704478541	
1.7375811369044736E12	-10.109756097560975	-1.3012048192771084	-0.1566265060240964	1.2687013764213046	-10.056253740275285	-0.22980251346499103	4108.424908424908	1845.4212454212452	-1.2671755725190839	-30.106870229007633	-5.0534351145038165	-0.2368815592203898	-0.22488755622188905	-0.3088455772113943	100.54100473855567	34.05673704478541	
1.7375811369094478E12	-10.292682926829269	-1.0240963855421688	-0.3493975903614458	0.9934171154997008	-10.245362058647515	-0.3399162178336326	4139.194139194139	1748.7179487179485	2.015267175572519	-30.244274809160306	-9.66412213740458	-0.22788605697151423	-0.21589205397301348	-0.29985007496251875	100.54100473855567	34.05673704478541	
1.7375811369144219E12	-10.426829268292684	0.30120481927710846	-0.3734939759036145	-0.703770197486535	-10.278874925194494	-0.3734290843806104	4145.054945054945	1717.216117216117	5.66412213740458	-28.29007633587786	8.183206106870228	-0.22788605697151423	-0.21589205397301348	-0.29985007496251875	100.53576083601585	34.05673704478541	
1.7375811369193958E12	-10.707317073170731	-0.28915662650602414	-0.30120481927710846	0.6152004787552364	-10.676241771394375	-0.33273488928785155	4140.65934065934	1696.7032967032967	6.931297709923664	-23.0381679389313	-3.1755725190839694	-0.23238380809595202	-0.21739130434782608	-0.2908545727136432	100.53576083601585	34.05673704478541	
1.7375811369243699E12	-10.792682926829269	-0.9277108433734941	-0.3855421686746988	1.1825254338719329	-10.757630161579891	-0.34709754637941354	4126.007326007326	1667.3992673992673	12.076335877862595	-24.77862595419847	-11.129770992366412	-0.23238380809595202	-0.21739130434782608	-0.2908545727136432	100.53576083601585	34.05673704478541	
1.7375811369293438E12	-10.804878048780488	-0.7228915662650602	-0.3614457831325301	0.5840813883901855	-10.724117295032913	-0.38061041292639136	4143.589743589743	1677.6556776556774	13.694656488549617	-23.954198473282442	-10.50381679389313	-0.2383808095952024	-0.22188905547226387	-0.29985007496251875	100.53838278610259	34.05673704478541	
1.7375811369343179E12	-10.865853658536587	-0.8072289156626506	-0.26506024096385544	0.7803710353081986	-10.810293237582286	-0.2585278276481149	4128.937728937729	1665.201465201465	13.587786259541984	-19.00763358778626	-13.862595419847327	-0.2383808095952024	-0.22188905547226387	-0.29985007496251875	100.53838278610259	34.05673704478541	
1.7375811369392917E12	-10.951219512195122	-0.819277108433735	-0.3493975903614458	0.8330341113105925	-10.874925194494315	-0.3877917414721723	4139.194139194139	1674.7252747252746	13.282442748091603	-14.977099236641221	-16.427480916030532	-0.2368815592203898	-0.22638680659670163	-0.30134932533733133	100.53838278610259	34.05673704478541	
1.7375811369442659E12	-11.012195121951219	-0.5783132530120483	-0.5421686746987953	0.5026929982046678	-10.944344703770197	-0.6367444643925793	4136.263736263736	1677.6556776556774	12.870229007633588	-12.030534351145038	-16.931297709923662	-0.2368815592203898	-0.22638680659670163	-0.30134932533733133	100.5305169429413	34.05673704478541	
1.73758113694924E12	-11.060975609756097	-0.3132530120481928	-0.6867469879518072	0.22262118491921004	-11.02094554159186	-0.7707959305804907	4139.194139194139	1679.8534798534797	13.17557251908397	-10.6412213740458	-18.534351145038165	-0.2338830584707646	-0.22188905547226387	-0.29535232383808097	100.5305169429413	34.05673704478541	
1.7375811369542139E12	-11.146341463414634	-0.024096385542168676	-0.783132530120482	-0.023937761819269897	-11.104727707959306	-0.8090963494913226	4108.424908424908	1835.8974358974358	13.465648854961831	-7.557251908396946	-18.030534351145036	-0.2338830584707646	-0.22188905547226387	-0.29535232383808097	100.5305169429413	34.05673704478541	
1.737581136959188E12	-11.207317073170731	0.1927710843373494	-0.8072289156626506	-0.21783363255535607	-11.119090365050868	-0.8545780969479353	4124.542124542124	1923.0769230769229	11.603053435114504	-7.251908396946565	-20.458015267175572	-0.22038980509745126	-0.22788605697151423	-0.3043478260869565	100.53576083601585	34.05673704478541	
1.7375811369641619E12	-11.317073170731708	0.3253012048192771	-0.8674698795180723	-0.3973668461998803	-11.250748055056851	-0.9670855774985039	4118.681318681319	1953.8461538461538	9.770992366412214	-7.480916030534351	-19.61832061068702	-0.22038980509745126	-0.22788605697151423	-0.3043478260869565	100.53576083601585	34.05673704478541	
1.737581136969136E12	-11.390243902439025	0.3614457831325301	-0.9879518072289157	-0.4069419509275883	-11.31538001196888	-1.0676241771394375	4121.611721611721	1968.4981684981683	7.755725190839694	-7.129770992366412	-19.12977099236641	-0.23238380809595202	-0.22188905547226387	-0.3028485757121439	100.53576083601585	34.05673704478541	
1.7375811369741099E12	-11.426829268292684	0.16867469879518074	-1.0481927710843375	-0.047875523638539794	-11.375224416517055	-1.0963494913225613	4130.40293040293	1791.2087912087911	7.450381679389313	-8.82442748091603	-21.526717557251906	-0.23238380809595202	-0.22188905547226387	-0.3028485757121439	100.5305169429413	34.05673704478541	
1.737581136979084E12	-11.317073170731708	0.16867469879518074	-1.0240963855421688	-0.29443447037701975	-11.231597845601437	-1.1346499102333931	4111.355311355311	1888.6446886446886	6.045801526717557	-7.7251908396946565	-18.213740458015266	-0.2368815592203898	-0.22938530734632684	-0.30134932533733133	100.5305169429413	34.05673704478541	
1.737581136984058E12	-11.26829268292683	-0.22891566265060243	-0.9518072289156627	0.31597845601436264	-11.17175344105326	-0.9742669060442848	4143.589743589743	1768.4981684981683	4.854961832061068	-2.0763358778625953	-19.526717557251906	-0.2368815592203898	-0.22938530734632684	-0.30134932533733133	100.5305169429413	34.05673704478541	
1.737581136989032E12	-11.097560975609756	-0.07228915662650603	-0.7951807228915663	0.02872531418312388	-10.92519449431478	-0.8282465589467385	4140.65934065934	1718.6813186813185	3.5267175572519083	-3.541984732824427	-22.137404580152673	-0.2338830584707646	-0.2338830584707646	-0.29385307346326833	100.53838278610259	34.05673704478541	
1.737581136994006E12	-11.060975609756097	-0.24096385542168675	-0.6144578313253012	0.2585278276481149	-10.977857570317175	-0.6558946738479952	4140.65934065934	1698.168498168498	0.183206106870229	1.465648854961832	-19.96946564885496	-0.2338830584707646	-0.2338830584707646	-0.29385307346326833	100.53838278610259	34.05673704478541	
1.73758113699898E12	-11.0	-0.5662650602409639	-0.6144578313253012	0.6941950927588271	-10.896469180131657	-0.6726511071214841	4146.520146520146	1696.7032967032967	-1.2366412213740459	3.1908396946564883	-22.091603053435115	-0.2338830584707646	-0.21889055472263869	-0.2983508245877061	100.53838278610259	34.05673704478541	
1.737581137003954E12	-10.939024390243903	-0.8795180722891567	-0.674698795180723	1.0029922202274086	-10.831837223219628	-0.7420706163973668	4139.194139194139	1687.9120879120878	-1.984732824427481	3.801526717557252	-24.687022900763356	-0.2338830584707646	-0.21889055472263869	-0.2983508245877061	100.5305169429413	34.05673704478541	
1.737581137008928E12	-10.865853658536587	-0.8674698795180723	-0.6626506024096386	0.7348892878515858	-10.72651107121484	-0.7564332734889287	4120.14652014652	1852.0146520146518	-2.4885496183206106	4.6106870229007635	-22.16793893129771	-0.2353823088455772	-0.23088455772113942	-0.2983508245877061	100.5305169429413	34.05673704478541	
1.737581137013902E12	-10.76829268292683	-0.8915662650602411	-0.6385542168674699	0.8019150209455416	-10.635547576301615	-0.6822262118491921	4139.194139194139	1750.9157509157508	-2.9770992366412212	5.862595419847328	-19.954198473282442	-0.2353823088455772	-0.23088455772113942	-0.2983508245877061	100.5305169429413	34.05673704478541	
1.737581137018876E12	-10.670731707317074	-1.0481927710843375	-0.6024096385542169	1.0101735487731898	-10.482345900658288	-0.6535008976660682	4115.750915750916	1876.923076923077	-3.83206106870229	6.030534351145038	-16.885496183206108	-0.2338830584707646	-0.21139430284857572	-0.2983508245877061	100.53838278610259	34.05673704478541	
1.73758113702385E12	-10.475609756097562	-1.2530120481927711	-0.5662650602409639	1.196888090963495	-10.326750448833034	-0.6128067025733094	4099.6336996336995	1909.8901098901097	-5.099236641221374	5.557251908396946	-14.244274809160304	-0.2338830584707646	-0.21139430284857572	-0.2983508245877061	100.53838278610259	34.05673704478541	
1.7375811370288242E12	-10.341463414634147	-1.4698795180722892	-0.5060240963855422	1.419509275882705	-10.192698982645123	-0.5673249551166966	4114.285714285714	1937.7289377289376	-6.122137404580153	4.809160305343512	-11.221374045801527	-0.21589205397301348	-0.2518740629685157	-0.3043478260869565	100.53838278610259	34.05673704478541	
1.737581137033798E12	-10.24390243902439	-1.6987951807228916	-0.46987951807228917	1.6277678037103531	-10.041891083183723	-0.5385996409335727	4115.750915750916	1954.5787545787543	-7.709923664122137	4.137404580152672	-8.961832061068701	-0.21589205397301348	-0.2518740629685157	-0.3043478260869565	100.53576083601585	34.05673704478541	
1.7375811370387722E12	-10.109756097560975	-1.8674698795180724	-0.39759036144578314	1.8073010173548774	-9.95571514063435	-0.473967684021544	4106.959706959707	1954.5787545787543	-8.091603053435113	2.778625954198473	-6.687022900763359	-0.22638680659670163	-0.22938530734632684	-0.29685157421289354	100.53576083601585	34.05673704478541	
1.737581137043746E12	-10.02439024390244	-2.0	-0.3734939759036145	1.9365649311789348	-9.879114302812686	-0.42848593656493117	4127.472527472527	1779.4871794871794	-8.244274809160306	1.6946564885496183	-5.221374045801526	-0.22638680659670163	-0.22938530734632684	-0.29685157421289354	100.53576083601585	34.05673704478541	
1.7375811370487202E12	-9.987804878048781	-2.144578313253012	-0.42168674698795183	2.082585278276481	-9.862357869539197	-0.4859365649311789	4128.937728937729	1707.6923076923076	-8.183206106870228	-0.9770992366412213	-3.4351145038167936	-0.239880059970015	-0.23088455772113942	-0.30134932533733133	100.5305169429413	34.05673704478541	
1.737581137053694E12	-9.987804878048781	-2.253012048192771	-0.5060240963855422	2.135248354278875	-9.90783961699581	-0.5745062836624776	4134.798534798534	1685.7142857142856	-7.8473282442748085	-4.427480916030534	-1.5877862595419847	-0.239880059970015	-0.23088455772113942	-0.30134932533733133	100.5305169429413	34.05673704478541	
1.7375811370586682E12	-10.02439024390244	-2.253012048192771	-0.6144578313253012	2.1137043686415318	-9.943746259724715	-0.706163973668462	4128.937728937729	1668.8644688644688	-7.404580152671755	-8.778625954198473	-0.13740458015267176	-0.22488755622188905	-0.22338830584707645	-0.2983508245877061	100.5305169429413	34.05673704478541	
1.7375811370636423E12	-10.060975609756097	-2.240963855421687	-0.710843373493976	2.12327947336924	-9.979652902453621	-0.8450029922202273	4120.14652014652	1844.6886446886447	-6.534351145038167	-13.557251908396946	0.5343511450381679	-0.22488755622188905	-0.22338830584707645	-0.2983508245877061	100.53576083601585	34.05673704478541	
1.7375811370686162E12	-10.146341463414634	-2.204819277108434	-0.855421686746988	2.094554159186116	-10.075403949730699	-0.9982046678635548	4131.868131868132	1735.5311355311353	-5.603053435114504	-18.061068702290076	0.549618320610687	-0.2338830584707646	-0.22788605697151423	-0.29685157421289354	100.53576083601585	34.05673704478541	
1.7375811370735903E12	-10.231707317073171	-2.144578313253012	-0.9879518072289157	2.0466786355475763	-10.18551765409934	-1.0460801915020945	4147.985347985347	1717.9487179487178	-3.312977099236641	-22.213740458015266	0.22900763358778625	-0.2338830584707646	-0.22788605697151423	-0.29685157421289354	100.53576083601585	34.05673704478541	
1.7375811370785642E12	-10.25609756097561	-2.036144578313253	-0.9879518072289157	1.9413524835427887	-10.168761220825852	-0.9790544584081388	4142.124542124542	1702.5641025641025	-0.5801526717557252	-25.038167938931295	-0.6870229007633587	-0.22638680659670163	-0.21589205397301348	-0.29685157421289354	100.5305169429413	34.05673704478541	
1.7375811370835383E12	-10.219512195121952	-1.9759036144578315	-0.8915662650602411	1.886295631358468	-10.116098144823459	-0.8785158587672053	4150.91575091575	1705.4945054945053	1.7251908396946565	-26.442748091603054	-0.7175572519083969	-0.22638680659670163	-0.21589205397301348	-0.29685157421289354	100.5305169429413	34.05673704478541	
1.7375811370885122E12	-10.170731707317074	-1.9036144578313254	-0.8313253012048193	1.7426690604428485	-10.037103530819868	-0.8545780969479353	4146.520146520146	1699.6336996336995	3.6030534351145036	-26.732824427480914	-0.2595419847328244	-0.22038980509745126	-0.2338830584707646	-0.29535232383808097	100.5305169429413	34.05673704478541	
1.7375811370934863E12	-10.097560975609756	-1.7349397590361446	-0.819277108433735	1.5200478755236384	-9.970077797725912	-0.9120287253141831	4140.65934065934	1688.6446886446886	3.7862595419847325	-26.610687022900763	1.1755725190839694	-0.22038980509745126	-0.2338830584707646	-0.29535232383808097	100.53576083601585	34.05673704478541	
1.7375811370984604E12	-10.048780487804878	-1.4819277108433735	-0.9036144578313253	1.2256134051466188	-9.934171154997008	-1.0628366247755834	4134.798534798534	1678.3882783882782	2.8091603053435112	-26.839694656488547	2.396946564885496	-0.22788605697151423	-0.24737631184407796	-0.3118440779610195	100.53576083601585	34.05673704478541	
1.7375811371034343E12	-10.02439024390244	-1.1325301204819278	-1.108433734939759	0.8545780969479353	-9.891083183722321	-1.3261520047875524	4136.263736263736	1678.3882783882782	1.3893129770992365	-27.93893129770992	3.5877862595419847	-0.22788605697151423	-0.24737631184407796	-0.3118440779610195	100.53576083601585	34.05673704478541	
1.7375811371084084E12	-9.963414634146341	-0.746987951807229	-1.4096385542168675	0.473967684021544	-9.855176540993417	-1.601436265709156	4150.91575091575	1695.970695970696	0.41221374045801523	-29.32824427480916	4.702290076335878	-0.22638680659670163	-0.2353823088455772	-0.3073463268365817	100.53313888829541	34.05673704478541	
1.7375811371133823E12	-9.853658536585366	-0.3855421686746988	-1.63855421686747	0.13165769000598443	-9.675643327348892	-1.7450628366247756	4142.124542124542	1693.7728937728937	1.5419847328244274	-30.916030534351144	5.755725190839694	-0.22638680659670163	-0.2353823088455772	-0.3073463268365817	100.53313888829541	34.05673704478541	
1.7375811371183564E12	-9.682926829268293	-0.07228915662650603	-1.7590361445783134	-0.12926391382405744	-9.543985637342908	-1.8144823459006583	4150.91575091575	1701.8315018315018	2.4580152671755724	-32.44274809160305	7.129770992366412	-0.22788605697151423	-0.2338830584707646	-0.29535232383808097	100.53313888829541	34.05673704478541	
1.7375811371233303E12	-9.573170731707318	0.1566265060240964	-1.8313253012048194	-0.3782166367444644	-9.400359066427288	-1.8791143028126869	4143.589743589743	1691.5750915750914	2.183206106870229	-32.83969465648855	8.534351145038167	-0.22788605697151423	-0.2338830584707646	-0.29535232383808097	100.5305169429413	34.05673704478541	
1.7375811371283044E12	-9.475609756097562	0.39759036144578314	-1.9156626506024097	-0.5625374027528426	-9.333333333333334	-2.0155595451825254	4104.029304029304	1839.5604395604394	1.9694656488549618	-32.51908396946565	10.534351145038167	-0.239880059970015	-0.22788605697151423	-0.30134932533733133	100.5305169429413	34.05673704478541	
1.7375811371332786E12	-9.365853658536587	0.6024096385542169	-2.060240963855422	-0.7755834829443446	-9.251944943147816	-2.2190305206463194	4108.424908424908	1901.8315018315018	0.12213740458015267	-32.9618320610687	12.82442748091603	-0.239880059970015	-0.22788605697151423	-0.30134932533733133	100.5305169429413	34.05673704478541	
1.7375811371382524E12	-9.25609756097561	0.855421686746988	-2.1927710843373496	-0.9192100538599641	-9.16098144823459	-2.4416517055655294	4112.820512820513	1938.4615384615383	-2.091603053435114	-33.343511450381676	14.65648854961832	-0.2383808095952024	-0.22188905547226387	-0.29535232383808097	100.53838278610259	34.05673704478541	
1.7375811371432266E12	-9.109756097560975	1.0843373493975905	-2.3855421686746987	-1.153800119688809	-9.019748653500898	-2.4560143626570916	4133.333333333333	1780.2197802197802	-3.2213740458015265	-34.29007633587786	15.648854961832061	-0.23238380809595202	-0.2083958020989505	-0.30134932533733133	100.53838278610259	34.05673704478541	
1.7375811371482004E12	-9.048780487804878	1.2289156626506024	-2.5542168674698797	-1.2710951526032315	-8.950329144225014	-2.621184919210054	4147.985347985347	1736.263736263736	-3.8931297709923665	-34.79389312977099	16.0	-0.23238380809595202	-0.2083958020989505	-0.30134932533733133	100.53838278610259	34.05673704478541	
1.7375811371531746E12	-9.02439024390244	1.385542168674699	-2.6506024096385543	-1.419509275882705	-8.89048473967684	-2.669060442848594	4136.263736263736	1702.5641025641025	-3.9236641221374042	-35.14503816793893	15.419847328244273	-0.239880059970015	-0.23088455772113942	-0.29685157421289354	100.52527305933204	34.05673704478541	
1.7375811371581484E12	-8.951219512195122	1.3975903614457832	-2.63855421686747	-1.4530221424296828	-8.878515858767205	-2.6523040095751047	4134.798534798534	1683.5164835164835	-2.7938931297709924	-35.00763358778626	13.49618320610687	-0.239880059970015	-0.23088455772113942	-0.29685157421289354	100.52527305933204	34.05673704478541	
1.7375811371631226E12	-8.853658536585366	1.0963855421686748	-2.626506024096386	-0.8569718731298623	-8.785158587672052	-2.625972471573908	4126.007326007326	1661.5384615384614	-1.9083969465648853	-35.64885496183206	3.450381679389313	-0.21889055472263869	-0.25487256371814093	-0.32083958020989506	100.52527305933204	34.05673704478541	
1.7375811371680964E12	-8.890243902439025	1.2289156626506024	-2.602409638554217	-1.2902453620586476	-8.754039497307001	-2.618791143028127	4136.263736263736	1671.7948717948716	-1.3282442748091603	-36.15267175572519	2.1374045801526718	-0.21889055472263869	-0.25487256371814093	-0.32083958020989506	100.53313888829541	34.05673704478541	
1.7375811371730706E12	-8.951219512195122	1.3253012048192772	-2.5783132530120483	-1.3883901855176541	-8.852184320766009	-2.54458408138839	4137.728937728937	1672.5274725274724	-0.6717557251908397	-34.534351145038165	3.236641221374046	-0.2353823088455772	-0.22788605697151423	-0.29235382308845576	100.53313888829541	34.05673704478541	
1.7375811371780447E12	-8.951219512195122	1.1325301204819278	-2.5180722891566267	-1.1011370436864152	-8.83542788749252	-2.5254338719329743	4123.076923076923	1850.5494505494505	-0.061068702290076333	-33.160305343511446	0.5801526717557252	-0.2353823088455772	-0.22788605697151423	-0.29235382308845576	100.53313888829541	34.05673704478541	
1.7375811371830186E12	-8.975609756097562	1.0240963855421688	-2.4698795180722892	-0.9910233393177738	-8.880909634949132	-2.4703770197486534	4139.194139194139	1750.9157509157508	0.549618320610687	-32.412213740458014	-0.07633587786259542	-0.24287856071964017	-0.2338830584707646	-0.2893553223388306	100.5278949999535	34.05673704478541	
1.7375811371879927E12	-9.048780487804878	0.8674698795180723	-2.4216867469879517	-0.91442250149611	-8.98623578695392	-2.4512268102932375	4131.868131868132	1696.7032967032967	0.549618320610687	-31.31297709923664	-0.2900763358778626	-0.24287856071964017	-0.2338830584707646	-0.2893553223388306	100.5278949999535	34.05673704478541	
1.7375811371929666E12	-9.085365853658537	0.6867469879518072	-2.4096385542168677	-0.687013764213046	-8.991023339317774	-2.4464392579293834	4139.194139194139	1687.9120879120878	1.1450381679389312	-30.900763358778626	-1.4198473282442747	-0.24437781109445278	-0.22488755622188905	-0.29685157421289354	100.5278949999535	34.05673704478541	
1.7375811371979407E12	-9.170731707317074	0.5301204819277109	-2.3855421686746987	-0.6367444643925793	-9.086774386594854	-2.41771394374626	4147.985347985347	1697.4358974358972	2.1068702290076335	-29.81679389312977	-0.916030534351145	-0.24437781109445278	-0.22488755622188905	-0.29685157421289354	100.5305169429413	34.05673704478541	
1.7375811372029146E12	-9.231707317073171	0.3855421686746988	-2.325301204819277	-0.3949730700179533	-9.149012567324954	-2.338719329742669	4133.333333333333	1680.5860805860805	3.2671755725190836	-28.076335877862594	-0.6870229007633587	-0.2368815592203898	-0.2338830584707646	-0.3028485757121439	100.5305169429413	34.05673704478541	
1.7375811372078887E12	-9.304878048780488	0.1566265060240964	-2.2289156626506026	-0.21783363255535607	-9.199281867145421	-2.2549371633752244	4146.520146520146	1689.3772893772893	3.9236641221374042	-26.65648854961832	-1.6946564885496183	-0.2368815592203898	-0.2338830584707646	-0.3028485757121439	100.5305169429413	34.05673704478541	
1.7375811372128628E12	-9.378048780487806	0.13253012048192772	-2.108433734939759	-0.2537402752842609	-9.326152004787552	-2.073010173548773	4140.65934065934	1685.7142857142856	5.022900763358779	-24.366412213740457	-0.10687022900763359	-0.239880059970015	-0.22488755622188905	-0.2908545727136432	100.5305169429413	34.05673704478541	
1.7375811372178367E12	-9.463414634146341	0.03614457831325302	-1.9879518072289157	-0.016756433273488927	-9.385996409335727	-2.0059844404548173	4131.868131868132	1670.3296703296703	5.129770992366412	-21.725190839694655	-1.5267175572519083	-0.239880059970015	-0.22488755622188905	-0.2908545727136432	100.5305169429413	34.05673704478541	
1.7375811372228108E12	-9.548780487804878	0.13253012048192772	-1.8915662650602412	-0.21783363255535607	-9.474566128067025	-1.9245960502692998	4146.520146520146	1685.7142857142856	5.2824427480916025	-18.580152671755723	-0.12213740458015267	-0.2563718140929535	-0.23238380809595202	-0.29685157421289354	100.5305169429413	34.05673704478541	
1.7375811372277847E12	-9.695121951219512	0.27710843373493976	-1.8433734939759037	-0.4452423698384201	-9.60622381807301	-1.871932974266906	4133.333333333333	1674.7252747252746	5.49618320610687	-14.763358778625953	3.236641221374046	-0.2563718140929535	-0.23238380809595202	-0.29685157421289354	100.5305169429413	34.05673704478541	
1.7375811372327588E12	-9.74390243902439	0.14457831325301207	-1.746987951807229	-0.12926391382405744	-9.627767803710352	-1.8001196888090962	4118.681318681319	1850.5494505494505	5.312977099236641	-12.916030534351144	2.198473282442748	-0.24587706146926536	-0.24437781109445278	-0.3118440779610195	100.5305169429413	34.05673704478541	
1.7375811372377327E12	-9.829268292682928	0.10843373493975904	-1.6867469879518073	-0.17953321364452424	-9.71873129862358	-1.6971873129862358	4130.40293040293	1741.3919413919414	5.114503816793893	-11.954198473282442	3.0381679389312977	-0.24587706146926536	-0.24437781109445278	-0.3118440779610195	100.5305169429413	34.05673704478541	
1.7375811372427068E12	-9.914634146341463	0.16867469879518074	-1.6265060240963856	-0.2800718132854578	-9.85996409335727	-1.6493117893476958	4140.65934065934	1706.9597069597069	5.251908396946565	-11.81679389312977	4.549618320610687	-0.24287856071964017	-0.2338830584707646	-0.2893553223388306	100.53313888829541	34.05673704478541	
1.737581137247681E12	-10.02439024390244	0.24096385542168675	-1.5421686746987953	-0.3064033512866547	-9.958108916816277	-1.5727109515260322	4126.007326007326	1671.0622710622708	5.236641221374046	-11.923664122137405	6.366412213740458	-0.24287856071964017	-0.2338830584707646	-0.2893553223388306	100.53313888829541	34.05673704478541	
1.7375811372526548E12	-10.158536585365853	0.08433734939759037	-1.493975903614458	-0.18192698982645122	-10.096947935368043	-1.4889287851585877	4121.611721611721	1850.5494505494505	5.465648854961832	-12.534351145038167	6.595419847328244	-0.24287856071964017	-0.22488755622188905	-0.28785607196401797	100.53313888829541	34.05673704478541	
1.737581137257629E12	-10.060975609756097	-0.39759036144578314	-1.4457831325301205	0.15320167564332735	-9.893476959904248	-1.414721723518851	4124.542124542124	1929.6703296703295	5.206106870229007	-16.0	-5.9541984732824424	-0.24287856071964017	-0.22488755622188905	-0.28785607196401797	100.5278949999535	34.05673704478541	
1.7375811372626028E12	-10.353658536585366	0.5662650602409639	-1.3614457831325302	-1.0628366247755834	-10.357869539198084	-1.3189706762417714	4127.472527472527	1794.8717948717947	6.015267175572519	-16.259541984732824	10.106870229007633	-0.24137931034482757	-0.22788605697151423	-0.28785607196401797	100.5278949999535	34.05673704478541	
1.737581137267577E12	-10.402439024390244	0.5903614457831325	-1.3614457831325302	-0.6391382405745063	-10.338719329742668	-1.3453022142429683	4118.681318681319	1900.3663003663003	5.740458015267175	-15.541984732824426	13.709923664122137	-0.24137931034482757	-0.22788605697151423	-0.28785607196401797	100.5278949999535	34.05673704478541	
1.7375811372725508E12	-10.304878048780488	0.43373493975903615	-1.3253012048192772	-0.49790544584081387	-10.209455415918612	-1.3548773189706762	4143.589743589743	1774.3589743589741	6.152671755725191	-17.938931297709924	14.916030534351144	-0.24737631184407796	-0.22638680659670163	-0.29385307346326833	100.53838278610259	34.05673704478541	
1.737581137277525E12	-10.28048780487805	0.49397590361445787	-1.313253012048193	-0.5816876122082585	-10.159186116098144	-1.3261520047875524	4120.14652014652	1887.9120879120878	6.793893129770992	-21.46564885496183	16.381679389312975	-0.24737631184407796	-0.22638680659670163	-0.29385307346326833	100.53838278610259	34.05673704478541	
1.7375811372824988E12	-10.25609756097561	0.5542168674698795	-1.349397590361446	-0.6175942549371634	-10.161579892280072	-1.3405146618791142	4124.542124542124	1945.7875457875457	7.343511450381679	-24.16793893129771	18.671755725190838	-0.24137931034482757	-0.22638680659670163	-0.29685157421289354	100.53838278610259	34.05673704478541	
1.737581137287473E12	-10.182926829268293	0.5421686746987953	-1.3614457831325302	-0.6271693596648713	-10.080191502094554	-1.393177737881508	4124.542124542124	1969.230769230769	8.091603053435113	-25.374045801526716	21.19083969465649	-0.24137931034482757	-0.22638680659670163	-0.29685157421289354	100.53313888829541	34.05673704478541	
1.737581137292447E12	-10.097560975609756	0.4096385542168675	-1.349397590361446	-0.34470377019748655	-9.965290245362059	-1.3309395571514062	4120.14652014652	1969.9633699633698	8.763358778625953	-26.30534351145038	20.47328244274809	-0.24737631184407796	-0.22938530734632684	-0.2908545727136432	100.53313888829541	34.05673704478541	
1.737581137297421E12	-10.048780487804878	0.3253012048192771	-1.2771084337349399	-0.31119090365050867	-9.903052064631957	-1.2543387193297426	4142.124542124542	1806.5934065934064	9.526717557251908	-27.297709923664122	21.251908396946565	-0.24737631184407796	-0.22938530734632684	-0.2908545727136432	100.53313888829541	34.05673704478541	
1.737581137302395E12	-9.926829268292684	0.2530120481927711	-1.1927710843373494	-0.3375224416517056	-9.792938360263316	-1.165769000598444	4124.542124542124	1912.087912087912	9.969465648854962	-27.96946564885496	21.66412213740458	-0.22938530734632684	-0.22938530734632684	-0.3118440779610195	100.53313888829541	34.05673704478541	
1.737581137307369E12	-9.853658536585366	0.27710843373493976	-1.1325301204819278	-0.3279473369239976	-9.70197486535009	-1.1250748055056852	4117.216117216117	1944.3223443223442	10.396946564885496	-28.16793893129771	22.458015267175572	-0.22938530734632684	-0.22938530734632684	-0.3118440779610195	100.53313888829541	34.05673704478541	
1.737581137312343E12	-9.719512195121952	0.24096385542168675	-1.0481927710843375	-0.22262118491921004	-9.57510472770796	-1.0771992818671454	4130.40293040293	1780.9523809523807	10.610687022900763	-27.358778625954198	22.732824427480914	-0.22638680659670163	-0.23238380809595202	-0.2848575712143928	100.53313888829541	34.05673704478541	
1.737581137317317E12	-9.597560975609756	0.30120481927710846	-1.072289156626506	-0.36385397965290245	-9.441053261520048	-1.1131059245960502	4106.959706959707	1882.051282051282	10.244274809160306	-27.32824427480916	23.236641221374043	-0.22638680659670163	-0.23238380809595202	-0.2848575712143928	100.5305169429413	34.05673704478541	
1.737581137322291E12	-9.439024390243903	0.3493975903614458	-1.072289156626506	-0.41172950329144226	-9.295032914422501	-1.1178934769599043	4150.91575091575	1779.4871794871794	9.877862595419847	-26.702290076335878	23.068702290076335	-0.25037481259370314	-0.22638680659670163	-0.2893553223388306	100.5305169429413	34.05673704478541	
1.7375811373272651E12	-9.28048780487805	0.4096385542168675	-1.1325301204819278	-0.43327348892878514	-9.093955715140634	-1.172950329144225	4142.124542124542	1728.2051282051282	9.694656488549619	-26.15267175572519	22.198473282442748	-0.25037481259370314	-0.22638680659670163	-0.2893553223388306	100.5305169429413	34.05673704478541	
1.737581137332239E12	-9.146341463414634	0.5180722891566265	-1.1686746987951808	-0.5697187312986236	-8.991023339317774	-1.2208258527827647	4142.124542124542	1706.9597069597069	9.66412213740458	-25.32824427480916	22.702290076335878	-0.24887556221889054	-0.22338830584707645	-0.29235382308845576	100.53313888829541	34.05673704478541	
1.7375811373372131E12	-9.0	0.6024096385542169	-1.1686746987951808	-0.7157390783961699	-8.852184320766009	-1.196888090963495	4134.798534798534	1684.9816849816848	9.694656488549619	-25.603053435114504	22.3206106870229	-0.24887556221889054	-0.22338830584707645	-0.29235382308845576	100.53313888829541	34.05673704478541	
1.737581137342187E12	-8.902439024390244	0.674698795180723	-1.1686746987951808	-0.7444643925792939	-8.744464392579294	-1.16098144823459	4143.589743589743	1685.7142857142856	10.198473282442748	-25.206106870229007	21.709923664122137	-0.25337331334332835	-0.2338830584707646	-0.2833583208395802	100.53313888829541	34.05673704478541	
1.7375811373471611E12	-8.829268292682928	0.7590361445783133	-1.072289156626506	-0.8186714542190305	-8.689407540394972	-1.0795930580490725	4133.333333333333	1675.4578754578754	10.442748091603052	-23.938931297709924	22.213740458015266	-0.25337331334332835	-0.2338830584707646	-0.2833583208395802	100.5305169429413	34.05673704478541	
1.737581137352135E12	-8.78048780487805	0.8433734939759037	-1.0120481927710845	-0.9455415918611609	-8.663076002393776	-1.0053859964093357	4139.194139194139	1679.120879120879	10.0	-23.12977099236641	21.908396946564885	-0.2518740629685157	-0.21889055472263869	-0.28785607196401797	100.5305169429413	34.05673704478541	
1.7375811373571091E12	-8.76829268292683	0.9156626506024097	-0.9759036144578314	-0.9790544584081388	-8.641532016756432	-1.0365050867743866	4142.124542124542	1686.4468864468863	9.572519083969466	-21.572519083969464	21.19083969465649	-0.2518740629685157	-0.21889055472263869	-0.28785607196401797	100.5305169429413	34.05673704478541	
1.7375811373620833E12	-8.76829268292683	0.9759036144578314	-0.9518072289156627	-1.0388988629563136	-8.66786355475763	-0.9934171154997008	4140.65934065934	1684.249084249084	8.412213740458014	-20.198473282442748	21.068702290076335	-0.25037481259370314	-0.22488755622188905	-0.29385307346326833	100.5278949999535	34.05673704478541	
1.7375811373670571E12	-8.74390243902439	1.036144578313253	-0.8915662650602411	-1.0580490724117295	-8.648713345302214	-0.9072411729503291	4134.798534798534	1676.1904761904761	7.49618320610687	-18.137404580152673	19.832061068702288	-0.25037481259370314	-0.22488755622188905	-0.29385307346326833	100.5278949999535	34.05673704478541	
1.7375811373720312E12	-8.75609756097561	1.0963855421686748	-0.8313253012048193	-1.1394374625972472	-8.631956912028725	-0.8402154398563734	4124.542124542124	1857.8754578754576	6.748091603053435	-16.16793893129771	20.106870229007633	-0.24437781109445278	-0.2353823088455772	-0.30134932533733133	100.5278949999535	34.05673704478541	
1.7375811373770051E12	-8.78048780487805	1.0602409638554218	-0.819277108433735	-1.0005984440454818	-8.696588868940754	-0.8545780969479353	4131.868131868132	1740.6593406593406	6.2748091603053435	-13.877862595419847	17.893129770992367	-0.24437781109445278	-0.2353823088455772	-0.30134932533733133	100.5278949999535	34.05673704478541	
1.7375811373819792E12	-8.792682926829269	1.108433734939759	-0.8072289156626506	-1.16098144823459	-8.696588868940754	-0.8162776780371035	4142.124542124542	1712.087912087912	5.129770992366412	-13.16030534351145	17.14503816793893	-0.2638680659670165	-0.23238380809595202	-0.2848575712143928	100.5278949999535	34.05673704478541	
1.7375811373869531E12	-8.853658536585366	1.108433734939759	-0.8433734939759037	-1.0795930580490725	-8.737283064033512	-0.8761220825852782	4139.194139194139	1693.7728937728937	5.236641221374046	-10.916030534351144	17.31297709923664	-0.2638680659670165	-0.23238380809595202	-0.2848575712143928	100.5278949999535	34.05673704478541	
1.7375811373919272E12	-8.853658536585366	1.108433734939759	-0.8433734939759037	-1.1250748055056852	-8.766008378216636	-0.8856971873129862	4134.798534798534	1679.8534798534797	5.221374045801526	-9.770992366412214	16.85496183206107	-0.2653673163418291	-0.22488755622188905	-0.2848575712143928	100.5305169429413	34.05673704478541	
1.7375811373969014E12	-8.853658536585366	1.0602409638554218	-0.819277108433735	-1.0556552962298025	-8.749251944943147	-0.8497905445840813	4147.985347985347	1693.7728937728937	4.854961832061068	-9.66412213740458	14.473282442748092	-0.2653673163418291	-0.22488755622188905	-0.2848575712143928	100.5305169429413	34.05673704478541	
1.7375811374018752E12	-8.865853658536585	1.0843373493975905	-0.7951807228915663	-1.0604428485936566	-8.777977259126272	-0.8497905445840813	4117.216117216117	1853.4798534798533	4.091603053435114	-8.549618320610687	13.251908396946565	-0.2593703148425787	-0.21139430284857572	-0.29235382308845576	100.5305169429413	34.05673704478541	
1.7375811374068494E12	-8.878048780487806	1.2289156626506024	-0.7951807228915663	-1.2878515858767206	-8.804308797127469	-0.7851585876720526	4134.798534798534	1745.054945054945	5.1603053435114505	-7.572519083969465	15.358778625954198	-0.2593703148425787	-0.21139430284857572	-0.29235382308845576	100.53838278610259	34.05673704478541	
1.7375811374118232E12	-8.878048780487806	1.2891566265060241	-0.7710843373493976	-1.2782764811490126	-8.746858168761221	-0.7564332734889287	4145.054945054945	1715.018315018315	5.66412213740458	-6.778625954198473	15.725190839694656	-0.2608695652173913	-0.21589205397301348	-0.29535232383808097	100.53838278610259	34.05673704478541	
1.7375811374167974E12	-8.853658536585366	1.2650602409638554	-0.6867469879518072	-1.2208258527827647	-8.763614602034709	-0.6654697785757031	4130.40293040293	1685.7142857142856	5.6183206106870225	-6.687022900763359	15.297709923664122	-0.2608695652173913	-0.21589205397301348	-0.29535232383808097	100.53838278610259	34.05673704478541	
1.7375811374217712E12	-8.878048780487806	1.2409638554216869	-0.6024096385542169	-1.2687013764213046	-8.768402154398563	-0.5864751645721125	4142.124542124542	1689.3772893772893	4.916030534351145	-6.7328244274809155	14.015267175572518	-0.2593703148425787	-0.22488755622188905	-0.280359820089955	100.5278949999535	34.05673704478541	
1.7375811374267454E12	-8.914634146341463	1.2530120481927711	-0.5903614457831325	-1.2615200478755235	-8.859365649311789	-0.5864751645721125	4145.054945054945	1691.5750915750914	4.7328244274809155	-6.1679389312977095	13.709923664122137	-0.2593703148425787	-0.22488755622188905	-0.280359820089955	100.5278949999535	34.05673704478541	
1.7375811374317192E12	-8.963414634146341	1.349397590361446	-0.49397590361445787	-1.40754039497307	-8.849790544584081	-0.5242369838420108	4142.124542124542	1691.5750915750914	3.847328244274809	-5.66412213740458	12.595419847328245	-0.24287856071964017	-0.22188905547226387	-0.29385307346326833	100.5278949999535	34.05673704478541	
1.7375811374366934E12	-8.975609756097562	1.3614457831325302	-0.46987951807228917	-1.371633752244165	-8.878515858767205	-0.4883303411131059	4143.589743589743	1687.9120879120878	3.1908396946564883	-4.3206106870229	12.48854961832061	-0.24287856071964017	-0.22188905547226387	-0.29385307346326833	100.5305169429413	34.05673704478541	
1.7375811374416675E12	-8.951219512195122	0.5180722891566265	-0.39759036144578314	0.3518850987432675	-8.96947935368043	-0.4931178934769599	4124.542124542124	1862.2710622710622	0.732824427480916	-6.916030534351145	-11.236641221374045	-0.2593703148425787	-0.22188905547226387	-0.29535232383808097	100.5305169429413	34.05673704478541	
1.7375811374466414E12	-9.048780487804878	1.2409638554216869	-0.3132530120481928	-1.8312387791741471	-8.871334530221423	-0.31837223219628963	4133.333333333333	1747.985347985348	-2.259541984732824	-3.4351145038167936	2.259541984732824	-0.2593703148425787	-0.22188905547226387	-0.29535232383808097	100.5305169429413	34.05673704478541	
1.7375811374516155E12	-9.121951219512196	1.9518072289156627	-0.4096385542168675	-2.178336325553561	-9.048473967684021	-0.34470377019748655	4124.542124542124	1887.179487179487	1.5572519083969465	0.7022900763358778	8.16793893129771	-0.2563718140929535	-0.22488755622188905	-0.2848575712143928	100.5278949999535	34.05673704478541	
1.7375811374565894E12	-9.0	1.8192771084337351	-0.3373493975903615	-1.6876122082585279	-8.878515858767205	-0.3782166367444644	4146.520146520146	1774.3589743589741	3.312977099236641	1.8625954198473282	5.2824427480916025	-0.2563718140929535	-0.22488755622188905	-0.2848575712143928	100.5278949999535	34.05673704478541	
1.7375811374615635E12	-8.963414634146341	1.7590361445783134	-0.24096385542168675	-1.7378815080789947	-8.859365649311789	-0.24416517055655296	4137.728937728937	1714.2857142857142	2.259541984732824	1.83206106870229	3.9236641221374042	-0.2563718140929535	-0.2128935532233883	-0.2848575712143928	100.5278949999535	34.05673704478541	
1.7375811374665374E12	-8.975609756097562	1.927710843373494	-0.27710843373493976	-2.0347097546379413	-8.885697187312987	-0.26331538001196886	4142.124542124542	1701.8315018315018	3.49618320610687	2.3664122137404577	5.801526717557252	-0.2563718140929535	-0.2128935532233883	-0.2848575712143928	100.53313888829541	34.05673704478541	
1.7375811374715115E12	-9.012195121951219	1.963855421686747	-0.3132530120481928	-1.9461400359066428	-8.904847396768401	-0.3040095751047277	4140.65934065934	1690.8424908424906	4.961832061068702	2.916030534351145	4.870229007633587	-0.2578710644677661	-0.22488755622188905	-0.29235382308845576	100.53313888829541	34.05673704478541	
1.7375811374764856E12	-8.975609756097562	2.036144578313253	-0.27710843373493976	-2.154398563734291	-8.840215439856372	-0.22262118491921004	4143.589743589743	1687.179487179487	7.648854961832061	4.870229007633587	7.480916030534351	-0.2578710644677661	-0.22488755622188905	-0.29235382308845576	100.53313888829541	34.05673704478541	
1.7375811374814595E12	-8.926829268292684	1.963855421686747	-0.1566265060240964	-1.8479952124476362	-8.804308797127469	-0.13405146618791142	4140.65934065934	1684.9816849816848	9.862595419847327	6.045801526717557	6.2748091603053435	-0.2578710644677661	-0.23088455772113942	-0.2848575712143928	100.53313888829541	34.05673704478541	
1.7375811374864336E12	-8.926829268292684	1.6987951807228916	-0.0963855421686747	-1.5631358467983243	-8.806702573309396	-0.07660083782166367	4139.194139194139	1682.7838827838827	10.0	7.2824427480916025	2.091603053435114	-0.2578710644677661	-0.23088455772113942	-0.2848575712143928	100.53313888829541	34.05673704478541	
1.7375811374914075E12	-8.951219512195122	1.746987951807229	-0.07228915662650603	-1.864751645721125	-8.830640335128665	-0.06463195691202872	4143.589743589743	1684.249084249084	10.427480916030534	9.206106870229007	3.49618320610687	-0.24887556221889054	-0.23088455772113942	-0.2833583208395802	100.53313888829541	34.05673704478541	
1.7375811374963816E12	-8.987804878048781	1.7951807228915664	-0.04819277108433735	-1.7067624177139438	-8.892878515858767	-0.02872531418312388	4126.007326007326	1661.5384615384614	13.099236641221374	11.725190839694656	6.458015267175572	-0.24887556221889054	-0.23088455772113942	-0.2833583208395802	100.5278949999535	34.05673704478541	
1.7375811375013555E12	-8.951219512195122	1.6265060240963856	-0.012048192771084338	-1.5679233991621784	-8.849790544584081	0.04308797127468582	4128.937728937729	1658.6080586080584	13.648854961832061	12.442748091603052	4.183206106870228	-0.2593703148425787	-0.23238380809595202	-0.29535232383808097	100.5278949999535	34.05673704478541	
1.7375811375063296E12	-8.951219512195122	1.5060240963855422	0.012048192771084338	-1.4578096947935368	-8.8426092160383	0.019150209455415918	4128.937728937729	1657.142857142857	14.061068702290076	13.633587786259541	3.0381679389312977	-0.2593703148425787	-0.23238380809595202	-0.29535232383808097	100.5278949999535	34.05673704478541	
1.7375811375113037E12	-8.914634146341463	1.457831325301205	-0.024096385542168676	-1.402752842609216	-8.864153201675643	-0.016756433273488927	4126.007326007326	1651.2820512820513	15.31297709923664	14.259541984732824	1.4961832061068703	-0.2623688155922039	-0.22938530734632684	-0.2863568215892054	100.52265112107686	34.05673704478541	
1.7375811375162776E12	-8.914634146341463	1.3975903614457832	-0.024096385542168676	-1.3500897666068223	-8.806702573309396	0.0023937761819269898	4114.285714285714	1830.7692307692307	16.77862595419847	13.83206106870229	0.1984732824427481	-0.24437781109445278	-0.24137931034482757	-0.29535232383808097	100.52265112107686	34.05673704478541	
1.7375811375212517E12	-8.853658536585366	1.2409638554216869	0.012048192771084338	-1.2040694195092758	-8.713345302214243	0.09096349491322561	4124.542124542124	1921.6117216117216	18.442748091603054	14.320610687022901	-0.41221374045801523	-0.24437781109445278	-0.24137931034482757	-0.29535232383808097	100.52265112107686	34.05673704478541	
1.7375811375262256E12	-8.817073170731708	1.1325301204819278	0.10843373493975904	-1.1250748055056852	-8.687013764213045	0.11968880909634949	4115.750915750916	1947.2527472527472	19.61832061068702	14.427480916030534	-0.6717557251908397	-0.25487256371814093	-0.22038980509745126	-0.28785607196401797	100.5278949999535	34.05673704478541	
1.7375811375311997E12	-8.817073170731708	1.108433734939759	0.10843373493975904	-1.1178934769599043	-8.703770197486534	0.0933572710951526	4121.611721611721	1964.8351648351647	19.801526717557252	13.49618320610687	-0.9618320610687022	-0.25487256371814093	-0.22038980509745126	-0.28785607196401797	100.5278949999535	34.05673704478541	
1.7375811375361736E12	-8.817073170731708	1.0240963855421688	0.10843373493975904	-0.9838420107719928	-8.672651107121483	0.13165769000598443	4130.40293040293	1789.7435897435896	19.43511450381679	12.793893129770991	-1.4809160305343512	-0.25487256371814093	-0.23088455772113942	-0.2983508245877061	100.5278949999535	34.05673704478541	
1.7375811375411477E12	-8.74390243902439	0.963855421686747	0.21686746987951808	-0.9790544584081388	-8.634350688210652	0.2106523040095751	4133.333333333333	1718.6813186813185	18.85496183206107	12.274809160305344	-1.8015267175572518	-0.25487256371814093	-0.23088455772113942	-0.2983508245877061	100.52527305933204	34.05673704478541	
1.7375811375461218E12	-8.74390243902439	0.9277108433734941	0.22891566265060243	-0.933572710951526	-8.631956912028725	0.20347097546379414	4128.937728937729	1682.7838827838827	17.404580152671755	11.81679389312977	-2.549618320610687	-0.25337331334332835	-0.23088455772113942	-0.29235382308845576	100.52527305933204	34.05673704478541	
1.7375811375510957E12	-8.76829268292683	0.9036144578313253	0.24096385542168675	-0.9120287253141831	-8.62716935966487	0.19150209455415917	4134.798534798534	1675.4578754578754	15.877862595419847	10.290076335877862	-3.8625954198473282	-0.25337331334332835	-0.23088455772113942	-0.29235382308845576	100.52527305933204	34.05673704478541	
1.7375811375560698E12	-8.78048780487805	0.8433734939759037	0.18072289156626506	-0.8282465589467385	-8.682226211849192	0.16756433273488927	4140.65934065934	1679.8534798534797	15.068702290076335	10.442748091603052	-4.9465648854961835	-0.25487256371814093	-0.22638680659670163	-0.28785607196401797	100.5305169429413	34.05673704478541	
1.7375811375610437E12	-8.804878048780488	0.783132530120482	0.14457831325301207	-0.7636146020347098	-8.694195092758827	0.14841412327947337	4140.65934065934	1682.051282051282	14.427480916030534	9.938931297709923	-5.770992366412213	-0.25487256371814093	-0.22638680659670163	-0.28785607196401797	100.5305169429413	34.05673704478541	
1.7375811375660178E12	-8.841463414634147	0.6987951807228916	0.14457831325301207	-0.6798324356672651	-8.742070616397367	0.13883901855176542	4150.91575091575	1696.7032967032967	13.877862595419847	9.16030534351145	-5.969465648854961	-0.25337331334332835	-0.22638680659670163	-0.2818590704647676	100.5305169429413	34.05673704478541	
1.7375811375709917E12	-8.914634146341463	0.6506024096385542	0.13253012048192772	-0.6702573309395571	-8.847396768402154	0.06702573309395571	4142.124542124542	1693.7728937728937	13.389312977099236	8.6412213740458	-6.229007633587786	-0.25337331334332835	-0.22638680659670163	-0.2818590704647676	100.5278949999535	34.05673704478541	
1.7375811375759658E12	-8.987804878048781	0.6265060240963856	0.07228915662650603	-0.6439257929383603	-8.926391382405745	0.016756433273488927	4140.65934065934	1687.179487179487	13.725190839694656	8.381679389312977	-6.198473282442748	-0.2638680659670165	-0.22488755622188905	-0.2863568215892054	100.5278949999535	34.05673704478541	
1.7375811375809397E12	-9.085365853658537	0.6626506024096386	0.012048192771084338	-0.701376421304608	-9.000598444045481	0.03590664272890485	4101.098901098901	1836.6300366300366	14.106870229007633	7.541984732824427	-6.671755725190839	-0.2638680659670165	-0.22488755622188905	-0.2863568215892054	100.5278949999535	34.05673704478541	
1.7375811375859138E12	-9.134146341463415	0.6626506024096386	0.060240963855421686	-0.696588868940754	-9.079593058049072	0.06941950927588271	4126.007326007326	1723.8095238095236	14.0	7.877862595419847	-6.809160305343511	-0.2593703148425787	-0.2353823088455772	-0.29385307346326833	100.5278949999535	34.05673704478541	
1.737581137590888E12	-9.182926829268293	0.710843373493976	0.1566265060240964	-0.7444643925792939	-9.139437462597247	0.13165769000598443	4140.65934065934	1700.3663003663003	13.725190839694656	8.015267175572518	-7.2824427480916025	-0.2593703148425787	-0.2353823088455772	-0.29385307346326833	100.5278949999535	34.05673704478541	
1.7375811375958618E12	-9.26829268292683	0.6987951807228916	0.1927710843373494	-0.703770197486535	-9.189706762417714	0.23219628964691802	4140.65934065934	1690.10989010989	13.190839694656487	8.580152671755725	-7.480916030534351	-0.2578710644677661	-0.21889055472263869	-0.2848575712143928	100.5278949999535	34.05673704478541	
1.737581137600836E12	-9.317073170731708	0.710843373493976	0.26506024096385544	-0.7468581687612208	-9.271095152603232	0.31597845601436264	4137.728937728937	1679.8534798534797	12.473282442748092	9.404580152671755	-6.854961832061068	-0.2578710644677661	-0.21889055472263869	-0.2848575712143928	100.5278949999535	34.05673704478541	
1.7375811376058098E12	-9.414634146341463	0.746987951807229	0.3373493975903615	-0.7851585876720526	-9.381208856971872	0.3207660083782166	4142.124542124542	1686.4468864468863	11.32824427480916	8.99236641221374	-6.213740458015267	-0.25337331334332835	-0.22338830584707645	-0.2908545727136432	100.5278949999535	34.05673704478541	
1.737581137610784E12	-9.5	0.710843373493976	0.3493975903614458	-0.7588270496708558	-9.457809694793536	0.3087971274685817	4143.589743589743	1686.4468864468863	10.259541984732824	8.99236641221374	-4.870229007633587	-0.25337331334332835	-0.22338830584707645	-0.2908545727136432	100.5278949999535	34.05673704478541	
1.7375811376157578E12	-9.560975609756097	0.7590361445783133	0.28915662650602414	-0.8521843207660084	-9.539198084979054	0.2872531418312388	4134.798534798534	1676.923076923077	9.969465648854962	7.755725190839694	-3.49618320610687	-0.2518740629685157	-0.23238380809595202	-0.2908545727136432	100.52527305933204	34.05673704478541	
1.737581137620732E12	-9.658536585365853	0.8313253012048193	0.3132530120481928	-0.8713345302214243	-9.553560742070616	0.33034111310592457	4102.5641025641025	1828.5714285714284	9.740458015267174	6.519083969465648	-2.427480916030534	-0.2518740629685157	-0.23238380809595202	-0.2908545727136432	100.52527305933204	34.05673704478541	
1.737581137625706E12	-9.658536585365853	0.9036144578313253	0.3855421686746988	-0.93836026331538	-9.603830041891083	0.5409934171154996	4142.124542124542	1747.985347985348	10.549618320610687	5.587786259541985	-1.8778625954198473	-0.2593703148425787	-0.23238380809595202	-0.2773613193403298	100.52527305933204	34.05673704478541	
1.73758113763068E12	-9.682926829268293	0.963855421686747	0.5421686746987953	-0.9958108916816277	-9.587073608617594	0.5338120885697187	4146.520146520146	1717.216117216117	10.625954198473282	4.809160305343512	-1.3435114503816794	-0.2593703148425787	-0.23238380809595202	-0.2773613193403298	100.5278949999535	34.05673704478541	
1.737581137635654E12	-9.670731707317074	0.9397590361445783	0.746987951807229	-0.9599042489527229	-9.565529622980252	0.7396768402154399	4133.333333333333	1687.9120879120878	9.83206106870229	5.572519083969466	-1.3129770992366412	-0.2518740629685157	-0.239880059970015	-0.2833583208395802	100.5278949999535	34.05673704478541	
1.737581137640628E12	-9.658536585365853	0.9759036144578314	0.9397590361445783	-1.0029922202274086	-9.572710951526032	0.9862357869539198	4143.589743589743	1686.4468864468863	8.946564885496183	6.870229007633587	-1.7557251908396947	-0.2518740629685157	-0.239880059970015	-0.2833583208395802	100.5278949999535	34.05673704478541	
1.737581137645602E12	-9.646341463414634	1.0	1.1204819277108435	-0.9982046678635548	-9.532016756433274	1.141831238779174	4137.728937728937	1677.6556776556774	6.99236641221374	8.610687022900763	-2.213740458015267	-0.25487256371814093	-0.239880059970015	-0.2863568215892054	100.52527305933204	34.05673704478541	
1.737581137650576E12	-9.695121951219512	1.0240963855421688	1.2409638554216869	-1.0580490724117295	-9.565529622980252	1.20885697187313	4121.611721611721	1852.0146520146518	4.5038167938931295	11.31297709923664	-2.7022900763358777	-0.25487256371814093	-0.239880059970015	-0.2863568215892054	100.52527305933204	34.05673704478541	
1.73758113765555E12	-9.975609756097562	1.144578313253012	1.072289156626506	-1.189706762417714	-9.886295631358468	0.9503291442250149	4117.216117216117	1919.4139194139193	1.4351145038167938	16.412213740458014	-2.900763358778626	-0.2518740629685157	-0.2338830584707646	-0.29985007496251875	100.52527305933204	34.05673704478541	
1.7375811376605242E12	-10.365853658536587	1.2530120481927711	0.6385542168674699	-1.2758827049670856	-10.302812687013764	0.5362058647516457	4128.937728937729	1765.5677655677655	-1.7404580152671756	19.19083969465649	-2.4427480916030535	-0.2518740629685157	-0.2338830584707646	-0.29985007496251875	100.5278949999535	34.05673704478541	
1.737581137665498E12	-10.707317073170731	1.2289156626506024	0.16867469879518074	-1.3141831238779174	-10.633153800119688	0.12926391382405744	4131.868131868132	1703.296703296703	-0.5190839694656488	18.80916030534351	0.33587786259541985	-0.2563718140929535	-0.22488755622188905	-0.28785607196401797	100.5278949999535	34.05673704478541	
1.7375811376704722E12	-11.134146341463415	1.2650602409638554	-0.26506024096385544	-1.3189706762417714	-11.06163973668462	-0.2561340514661879	4142.124542124542	1697.4358974358972	4.015267175572519	18.83969465648855	4.198473282442748	-0.2563718140929535	-0.22488755622188905	-0.28785607196401797	100.5278949999535	34.05673704478541	
1.737581137675446E12	-11.634146341463415	0.9879518072289157	-0.7228915662650602	-1.2830640335128665	-11.633752244165171	-0.6606822262118491	4131.868131868132	1674.7252747252746	10.290076335877862	18.061068702290076	7.236641221374046	-0.25037481259370314	-0.22038980509745126	-0.280359820089955	100.52527305933204	34.05673704478541	
1.7375811376804202E12	-12.109756097560975	1.2409638554216869	-0.8915662650602411	-1.867145421903052	-12.019150209455416	-0.7492519449431478	4130.40293040293	1670.3296703296703	19.236641221374047	16.259541984732824	15.557251908396946	-0.25037481259370314	-0.22038980509745126	-0.280359820089955	100.52527305933204	34.05673704478541	
1.737581137685394E12	-12.560975609756097	1.0240963855421688	-0.9277108433734941	-1.0867743865948534	-12.555356074207062	-0.8426092160383004	4123.076923076923	1850.5494505494505	27.14503816793893	7.129770992366412	20.15267175572519	-0.2518740629685157	-0.22488755622188905	-0.2863568215892054	100.52527305933204	34.05673704478541	
1.7375811376903682E12	-12.658536585365853	0.7349397590361446	-0.710843373493976	-0.8138839018551766	-12.600837821663674	-0.6511071214841412	4146.520146520146	1758.974358974359	31.801526717557252	1.5419847328244274	24.290076335877863	-0.2518740629685157	-0.22488755622188905	-0.2863568215892054	100.5278949999535	34.05673704478541	
1.737581137695342E12	-12.670731707317074	-0.14457831325301207	-0.45783132530120485	-0.2800718132854578	-12.58886894075404	-0.2896469180131658	4117.216117216117	1880.5860805860805	33.83206106870229	-6.442748091603053	19.419847328244273	-0.2518740629685157	-0.22488755622188905	-0.2863568215892054	100.5278949999535	34.05673704478541	
1.7375811377003162E12	-12.536585365853659	-0.6626506024096386	-0.07228915662650603	0.26092160383004187	-12.308797127468582	-0.21543985637342908	4127.472527472527	1747.985347985348	19.862595419847327	-12.595419847328245	2.763358778625954	-0.2518740629685157	-0.22488755622188905	-0.2863568215892054	100.5278949999535	34.05673704478541	
1.7375811377052903E12	-12.841463414634147	0.674698795180723	0.3132530120481928	-1.393177737881508	-12.809096349491321	0.476361460203471	4142.124542124542	1715.018315018315	23.022900763358777	-16.396946564885496	29.34351145038168	-0.2563718140929535	-0.2338830584707646	-0.2833583208395802	100.5278949999535	34.05673704478541	
1.7375811377102642E12	-12.719512195121952	0.3132530120481928	0.16867469879518074	-0.10053859964093358	-12.600837821663674	0.12687013764213045	4140.65934065934	1695.970695970696	27.96946564885496	-9.282442748091603	24.595419847328245	-0.2563718140929535	-0.2338830584707646	-0.2833583208395802	100.5278949999535	34.05673704478541	
1.7375811377152383E12	-13.085365853658537	-0.3373493975903615	-0.08433734939759037	0.5769000598444045	-13.132256134051467	-0.16517055655296228	4146.520146520146	1696.7032967032967	29.053435114503817	-7.49618320610687	17.923664122137403	-0.25037481259370314	-0.2368815592203898	-0.28785607196401797	100.5278949999535	34.05673704478541	
1.7375811377202122E12	-13.0	-0.3855421686746988	-0.13253012048192772	0.22980251346499103	-12.864153201675643	-0.1627767803710353	4127.472527472527	1671.7948717948716	25.587786259541982	-15.877862595419847	21.908396946564885	-0.25037481259370314	-0.2368815592203898	-0.28785607196401797	100.5278949999535	34.05673704478541	
1.7375811377251863E12	-12.975609756097562	-0.710843373493976	-0.03614457831325302	0.7348892878515858	-12.88330341113106	-0.0718132854578097	4136.263736263736	1676.1904761904761	23.679389312977097	-22.091603053435115	26.763358778625953	-0.25037481259370314	-0.2383808095952024	-0.29235382308845576	100.5278949999535	34.05673704478541	
1.7375811377301602E12	-12.670731707317074	-0.5301204819277109	-0.04819277108433735	0.3566726511071215	-12.435667265110713	-0.05505685218432076	4142.124542124542	1685.7142857142856	23.374045801526716	-22.534351145038165	27.801526717557252	-0.25037481259370314	-0.2383808095952024	-0.29235382308845576	100.5278949999535	34.05673704478541	
1.7375811377351343E12	-12.560975609756097	-0.012048192771084338	0.060240963855421686	-0.13883901855176542	-12.454817474566127	0.06941950927588271	4139.194139194139	1682.7838827838827	25.16030534351145	-16.732824427480914	24.97709923664122	-0.2653673163418291	-0.2338830584707646	-0.2788605697151424	100.5278949999535	34.05673704478541	
1.7375811377401084E12	-12.25609756097561	0.27710843373493976	0.3493975903614458	-0.5601436265709157	-12.045481747456613	0.45002992220227406	4142.124542124542	1687.9120879120878	24.580152671755723	-18.900763358778626	31.251908396946565	-0.2653673163418291	-0.2338830584707646	-0.2788605697151424	100.5278949999535	34.05673704478541	
1.7375811377450823E12	-12.036585365853659	0.5542168674698795	0.5421686746987953	-0.6535008976660682	-11.87312986235787	0.4883303411131059	4118.681318681319	1856.4102564102564	20.9618320610687	-17.64885496183206	31.587786259541982	-0.25487256371814093	-0.22788605697151423	-0.2833583208395802	100.5278949999535	34.05673704478541	
1.7375811377500564E12	-11.792682926829269	0.8795180722891567	0.5903614457831325	-0.933572710951526	-11.648114901256733	0.4452423698384201	4133.333333333333	1745.054945054945	15.251908396946565	-16.748091603053435	28.442748091603054	-0.25487256371814093	-0.22788605697151423	-0.2833583208395802	100.5278949999535	34.05673704478541	
1.7375811377550303E12	-11.536585365853659	1.2048192771084338	0.5421686746987953	-1.3117893476959903	-11.368043087971275	0.45960502692998206	4114.285714285714	1870.3296703296703	7.6183206106870225	-18.198473282442748	24.396946564885496	-0.25487256371814093	-0.22488755622188905	-0.280359820089955	100.5278949999535	34.05673704478541	
1.7375811377600044E12	-11.26829268292683	1.6506024096385543	0.42168674698795183	-1.6708557749850388	-11.123877917414722	0.3542788749251945	4123.076923076923	1933.3333333333333	3.618320610687023	-12.564885496183205	26.717557251908396	-0.25487256371814093	-0.22488755622188905	-0.280359820089955	100.5278949999535	34.05673704478541	
1.7375811377649783E12	-11.097560975609756	1.8795180722891567	0.3132530120481928	-1.8551765409934171	-10.97307001795332	0.15798922800718132	4121.611721611721	1958.974358974359	-0.4427480916030534	-9.465648854961831	21.099236641221374	-0.2593703148425787	-0.22938530734632684	-0.27436281859070466	100.5278949999535	34.05673704478541	
1.7375811377699524E12	-10.951219512195122	2.0843373493975905	0.26506024096385544	-2.0754039497307	-10.824655894673848	0.0933572710951526	4128.937728937729	1781.6849816849815	-6.076335877862595	-5.435114503816794	17.00763358778626	-0.2593703148425787	-0.22938530734632684	-0.27436281859070466	100.5278949999535	34.05673704478541	
1.7375811377749265E12	-10.829268292682928	2.289156626506024	0.04819277108433735	-2.2405745062836626	-10.692998204667862	-0.10053859964093358	4127.472527472527	1707.6923076923076	-11.114503816793892	0.030534351145038167	12.6412213740458	-0.2608695652173913	-0.2383808095952024	-0.2893553223388306	100.5278949999535	34.05673704478541	
1.7375811377799004E12	-10.76829268292683	2.3855421686746987	-0.3253012048192771	-2.326750448833034	-10.6786355475763	-0.49790544584081387	4114.285714285714	1854.212454212454	-15.114503816793892	9.297709923664122	9.81679389312977	-0.2608695652173913	-0.2383808095952024	-0.2893553223388306	100.5305169429413	34.05673704478541	
1.7375811377848745E12	-10.707317073170731	2.3734939759036147	-0.6867469879518072	-2.3052064631956912	-10.585278276481148	-0.8593656493117894	4131.868131868132	1739.194139194139	-16.137404580152673	16.85496183206107	7.312977099236641	-0.26686656671664166	-0.23238380809595202	-0.2908545727136432	100.5305169429413	34.05673704478541	
1.7375811377898484E12	-10.597560975609756	2.397590361445783	-1.1325301204819278	-2.362657091561939	-10.515858767205266	-1.3333333333333333	4114.285714285714	1867.3992673992673	-16.458015267175572	25.893129770992367	6.3969465648854955	-0.26686656671664166	-0.23238380809595202	-0.2908545727136432	100.5305169429413	34.05673704478541	
1.7375811377948225E12	-10.536585365853659	2.433734939759036	-1.566265060240964	-2.4775583482944343	-10.44165170556553	-1.7498503889886294	4126.007326007326	1736.9963369963368	-15.755725190839694	32.16793893129771	5.145038167938931	-0.24587706146926536	-0.2383808095952024	-0.280359820089955	100.5278949999535	34.05673704478541	
1.7375811377997964E12	-10.414634146341463	2.4578313253012047	-1.9759036144578315	-2.410532615200479	-10.295631358467983	-2.1328545780969477	4149.450549450549	1714.2857142857142	-14.442748091603052	37.87786259541985	3.847328244274809	-0.24587706146926536	-0.2383808095952024	-0.280359820089955	100.5278949999535	34.05673704478541	
1.7375811378047705E12	-10.195121951219512	2.3734939759036147	-2.3493975903614457	-2.32196289646918	-10.025134649910234	-2.4631956912028725	4152.380952380952	1711.3553113553112	-12.0	42.15267175572519	2.6412213740458013	-0.26836581709145424	-0.22938530734632684	-0.2893553223388306	100.5278949999535	34.05673704478541	
1.7375811378097446E12	-9.902439024390244	2.216867469879518	-2.626506024096386	-2.1639736684619986	-9.721125074805505	-2.7169359664871333	4137.728937728937	1688.6446886446886	-8.885496183206106	46.6412213740458	1.1603053435114503	-0.26836581709145424	-0.22938530734632684	-0.2893553223388306	100.5278949999535	34.05673704478541	
1.7375811378147185E12	-9.634146341463415	1.9879518072289157	-2.807228915662651	-1.8479952124476362	-9.400359066427288	-2.858168761220826	4112.820512820513	1850.5494505494505	-5.770992366412213	49.74045801526717	-0.24427480916030533	-0.24887556221889054	-0.22338830584707645	-0.2863568215892054	100.5278949999535	34.05673704478541	
1.7375811378196926E12	-9.304878048780488	1.6626506024096386	-2.891566265060241	-1.5224416517055654	-9.093955715140634	-2.8677438659485337	4143.589743589743	1752.3809523809523	-4.183206106870228	51.43511450381679	-1.7862595419847327	-0.24887556221889054	-0.22338830584707645	-0.2863568215892054	100.5278949999535	34.05673704478541	
1.7375811378246665E12	-8.987804878048781	1.2771084337349399	-2.843373493975904	-1.156193895870736	-8.761220825852783	-2.872531418312388	4139.194139194139	1710.6227106227104	-3.114503816793893	53.19083969465649	-2.213740458015267	-0.2578710644677661	-0.22038980509745126	-0.2773613193403298	100.52527305933204	34.05673704478541	
1.7375811378296406E12	-8.695121951219512	0.8915662650602411	-2.783132530120482	-0.7588270496708558	-8.473967684021543	-2.803111909036505	4142.124542124542	1699.6336996336995	-3.465648854961832	53.19083969465649	-1.2671755725190839	-0.2578710644677661	-0.22038980509745126	-0.2773613193403298	100.52527305933204	34.05673704478541	
1.7375811378346145E12	-8.451219512195122	0.5421686746987953	-2.674698795180723	-0.46199880311190905	-8.244165170556553	-2.6929982046678633	4133.333333333333	1681.3186813186812	-5.175572519083969	51.75572519083969	-0.41221374045801523	-0.2593703148425787	-0.2368815592203898	-0.2818590704647676	100.52527305933204	34.05673704478541	
1.7375811378395886E12	-8.304878048780488	0.22891566265060243	-2.626506024096386	-0.1891083183722322	-8.186714542190305	-2.7001795332136447	4146.520146520146	1689.3772893772893	-7.923664122137405	50.06106870229007	0.9465648854961831	-0.2593703148425787	-0.2368815592203898	-0.2818590704647676	100.5305169429413	34.05673704478541	
1.7375811378445625E12	-8.25609756097561	0.012048192771084338	-2.6506024096385543	0.023937761819269897	-8.122082585278276	-2.7217235188509874	4142.124542124542	1690.8424908424906	-9.83206106870229	47.75572519083969	2.045801526717557	-0.25337331334332835	-0.23088455772113942	-0.29235382308845576	100.5305169429413	34.05673704478541	
1.7375811378495366E12	-8.24390243902439	-0.1927710843373494	-2.626506024096386	0.1867145421903052	-8.155595451825254	-2.6977857570317174	4139.194139194139	1684.9816849816848	-12.076335877862595	44.671755725190835	3.099236641221374	-0.25337331334332835	-0.23088455772113942	-0.29235382308845576	100.5305169429413	34.05673704478541	
1.7375811378545107E12	-8.341463414634147	-0.39759036144578314	-2.6144578313253013	0.41651705565529623	-8.296828246558947	-2.6738479952124474	4139.194139194139	1682.7838827838827	-13.893129770992365	40.79389312977099	4.198473282442748	-0.2518740629685157	-0.23088455772113942	-0.2863568215892054	100.52265112107686	34.05673704478541	
1.7375811378594846E12	-8.475609756097562	-0.6024096385542169	-2.5783132530120483	0.5792938360263316	-8.459605026929982	-2.599640933572711	4120.14652014652	1849.084249084249	-14.229007633587786	36.70229007633588	5.343511450381679	-0.2518740629685157	-0.23088455772113942	-0.2863568215892054	100.52265112107686	34.05673704478541	
1.7375811378644587E12	-8.670731707317074	-0.7349397590361446	-2.4939759036144578	0.701376421304608	-8.713345302214243	-2.4823459006582884	4131.868131868132	1736.9963369963368	-13.587786259541984	32.06106870229007	6.458015267175572	-0.24287856071964017	-0.24587706146926536	-0.3043478260869565	100.52265112107686	34.05673704478541	
1.7375811378694326E12	-8.926829268292684	-0.819277108433735	-2.4096385542168677	0.8090963494913226	-8.976660682226212	-2.2932375822860562	4111.355311355311	1865.9340659340658	-11.725190839694656	27.862595419847327	7.343511450381679	-0.24287856071964017	-0.24587706146926536	-0.3043478260869565	100.52265112107686	34.05673704478541	
1.7375811378744067E12	-9.231707317073171	-0.9277108433734941	-2.216867469879518	0.8473967684021544	-9.125074805505685	-2.0394973070017954	4140.65934065934	1758.2417582417581	-9.31297709923664	23.14503816793893	7.6183206106870225	-0.2578710644677661	-0.22338830584707645	-0.2818590704647676	100.52265112107686	34.05673704478541	
1.7375811378793806E12	-9.512195121951219	-1.0120481927710845	-1.963855421686747	0.8976660682226212	-9.438659485338121	-1.9222022740873728	4145.054945054945	1720.14652014652	-6.3206106870229	18.16793893129771	7.83206106870229	-0.2578710644677661	-0.22338830584707645	-0.2818590704647676	100.52265112107686	34.05673704478541	
1.7375811378843547E12	-9.829268292682928	-0.9759036144578314	-1.7349397590361446	0.9551166965888689	-9.742669060442848	-1.7067624177139438	4117.216117216117	1865.201465201465	-4.6106870229007635	14.076335877862595	7.236641221374046	-0.25037481259370314	-0.22188905547226387	-0.2863568215892054	100.5278949999535	34.05673704478541	
1.7375811378893289E12	-10.097560975609756	-0.8795180722891567	-1.5060240963855422	0.8258527827648114	-10.037103530819868	-1.5176540993417116	4134.798534798534	1750.18315018315	-3.3587786259541983	11.633587786259541	4.473282442748092	-0.25037481259370314	-0.22188905547226387	-0.2863568215892054	100.5278949999535	34.05673704478541	
1.7375811378943027E12	-10.304878048780488	-0.710843373493976	-1.2771084337349399	0.706163973668462	-10.228605625374028	-1.2543387193297426	4126.007326007326	1688.6446886446886	-2.3664122137404577	8.061068702290076	0.7022900763358778	-0.2563718140929535	-0.2338830584707646	-0.29385307346326833	100.5278949999535	34.05673704478541	
1.7375811378992769E12	-10.378048780487806	-0.5783132530120483	-1.072289156626506	0.5721125074805505	-10.331538001196888	-1.0987432675044884	4149.450549450549	1694.5054945054944	-1.9694656488549618	6.458015267175572	-4.580152671755725	-0.2563718140929535	-0.2338830584707646	-0.29385307346326833	100.5278949999535	34.05673704478541	
1.7375811379042507E12	-10.402439024390244	-0.44578313253012053	-0.9156626506024097	0.47875523638539796	-10.312387791741472	-0.933572710951526	4139.194139194139	1686.4468864468863	-1.2519083969465647	5.465648854961832	-8.67175572519084	-0.2578710644677661	-0.2368815592203898	-0.28785607196401797	100.5278949999535	34.05673704478541	
1.7375811379092249E12	-10.365853658536587	-0.24096385542168675	-0.783132530120482	0.24655894673847994	-10.28126870137642	-0.7731897067624177	4143.589743589743	1685.7142857142856	-0.38167938931297707	5.679389312977099	-11.786259541984732	-0.24437781109445278	-0.22638680659670163	-0.29235382308845576	100.5278949999535	34.05673704478541	
1.7375811379141987E12	-10.219512195121952	-0.22891566265060243	-0.6987951807228916	0.24416517055655296	-10.111310592459605	-0.6654697785757031	4130.40293040293	1673.9926739926739	1.282442748091603	6.977099236641221	-14.030534351145038	-0.24437781109445278	-0.22638680659670163	-0.29235382308845576	100.52527305933204	34.05673704478541	
1.7375811379191729E12	-10.073170731707318	-0.1566265060240964	-0.6024096385542169	0.15559545182525433	-9.974865350089766	-0.6247755834829444	4137.728937728937	1673.260073260073	2.3053435114503817	7.679389312977099	-15.404580152671755	-0.2623688155922039	-0.22338830584707645	-0.29685157421289354	100.52527305933204	34.05673704478541	
1.737581137924147E12	-9.926829268292684	-0.18072289156626506	-0.5542168674698795	0.20347097546379414	-9.788150807899461	-0.6367444643925793	4140.65934065934	1679.120879120879	2.8244274809160306	9.435114503816793	-16.77862595419847	-0.2623688155922039	-0.22338830584707645	-0.29685157421289354	100.52527305933204	34.05673704478541	
1.7375811379291208E12	-9.841463414634147	-0.22891566265060243	-0.5421686746987953	0.22501496110113703	-9.742669060442848	-0.6128067025733094	4130.40293040293	1671.0622710622708	1.2061068702290076	10.091603053435113	-20.9618320610687	-0.24137931034482757	-0.24737631184407796	-0.3148425787106447	100.52527305933204	34.05673704478541	
1.737581137934095E12	-9.75609756097561	-0.1566265060240964	-0.5060240963855422	0.12447636146020347	-9.656493117893477	-0.5577498503889886	4123.076923076923	1850.5494505494505	-0.030534351145038167	10.778625954198473	-21.709923664122137	-0.24137931034482757	-0.24737631184407796	-0.3148425787106447	100.52527305933204	34.05673704478541	
1.7375811379390688E12	-9.670731707317074	-0.08433734939759037	-0.49397590361445787	0.05745062836624776	-9.555954518252543	-0.5697187312986236	4137.728937728937	1745.7875457875457	-2.198473282442748	11.755725190839694	-24.335877862595417	-0.2593703148425787	-0.23088455772113942	-0.2848575712143928	100.52527305933204	34.05673704478541	
1.737581137944043E12	-9.621951219512196	-0.012048192771084338	-0.5060240963855422	0.019150209455415918	-9.536804308797127	-0.5649311789347696	4143.589743589743	1709.8901098901097	-3.9847328244274807	12.99236641221374	-27.16030534351145	-0.2593703148425787	-0.23088455772113942	-0.2848575712143928	100.52527305933204	34.05673704478541	
1.7375811379490168E12	-9.646341463414634	0.13253012048192772	-0.5301204819277109	-0.1843207660083782	-9.529622980251347	-0.5864751645721125	4133.333333333333	1685.7142857142856	-5.0534351145038165	14.412213740458014	-28.687022900763356	-0.24437781109445278	-0.23088455772113942	-0.29235382308845576	100.52527305933204	34.05673704478541	
1.737581137953991E12	-9.646341463414634	0.22891566265060243	-0.5903614457831325	-0.24177139437462597	-9.560742070616397	-0.6343506882106523	4142.124542124542	1689.3772893772893	-4.977099236641221	16.427480916030532	-29.43511450381679	-0.24437781109445278	-0.23088455772113942	-0.29235382308845576	100.52527305933204	34.05673704478541	
1.737581137958965E12	-9.585365853658537	0.1927710843373494	-0.6385542168674699	-0.19868342309994014	-9.517654099341712	-0.708557749850389	4143.589743589743	1687.179487179487	-4.778625954198473	17.81679389312977	-30.335877862595417	-0.2563718140929535	-0.2353823088455772	-0.2908545727136432	100.5305169429413	34.05673704478541	
1.737581137963939E12	-9.585365853658537	0.14457831325301207	-0.7228915662650602	-0.15798922800718132	-9.457809694793536	-0.7348892878515858	4136.263736263736	1682.7838827838827	-4.33587786259542	19.0381679389313	-30.3206106870229	-0.2563718140929535	-0.2353823088455772	-0.2908545727136432	100.5305169429413	34.05673704478541	
1.737581137968913E12	-9.475609756097562	0.024096385542168676	-0.7710843373493976	-0.047875523638539794	-9.32854578096948	-0.7971274685816876	4131.868131868132	1668.8644688644688	-4.122137404580153	19.908396946564885	-30.458015267175572	-0.24887556221889054	-0.23088455772113942	-0.2893553223388306	100.5305169429413	34.05673704478541	
1.737581137973887E12	-9.426829268292684	-0.04819277108433735	-0.819277108433735	0.0047875523638539795	-9.261520047875523	-0.8426092160383004	4123.076923076923	1849.8168498168498	-3.068702290076336	20.9618320610687	-29.206106870229007	-0.24887556221889054	-0.23088455772113942	-0.2893553223388306	100.52527305933204	34.05673704478541	
1.737581137978861E12	-9.353658536585366	-0.21686746987951808	-0.819277108433735	0.20347097546379414	-9.218432076600838	-0.8521843207660084	4140.65934065934	1751.6483516483515	-2.8091603053435112	21.221374045801525	-27.81679389312977	-0.24137931034482757	-0.23088455772113942	-0.2848575712143928	100.52527305933204	34.05673704478541	
1.737581137983835E12	-9.329268292682928	-0.30120481927710846	-0.8313253012048193	0.236983842010772	-9.172950329144225	-0.8306403351286654	4114.285714285714	1872.5274725274724	-2.045801526717557	21.297709923664122	-26.732824427480914	-0.24137931034482757	-0.23088455772113942	-0.2848575712143928	100.52527305933204	34.05673704478541	
1.737581137988809E12	-9.26829268292683	-0.3855421686746988	-0.7349397590361446	0.3518850987432675	-9.153800119688809	-0.7468581687612208	4128.937728937729	1745.054945054945	-1.7251908396946565	20.183206106870227	-25.51145038167939	-0.24137931034482757	-0.23088455772113942	-0.29685157421289354	100.52527305933204	34.05673704478541	
1.737581137993783E12	-9.24390243902439	-0.3855421686746988	-0.6265060240963856	0.2728904847396768	-9.117893476959903	-0.6582884500299222	4142.124542124542	1714.2857142857142	-1.465648854961832	18.748091603053435	-22.3206106870229	-0.24137931034482757	-0.23088455772113942	-0.29685157421289354	100.52527305933204	34.05673704478541	
1.737581137998757E12	-9.207317073170731	-0.42168674698795183	-0.5903614457831325	0.3782166367444644	-9.101137043686416	-0.6128067025733094	4114.285714285714	1856.4102564102564	-1.7099236641221374	16.290076335877863	-20.85496183206107	-0.2518740629685157	-0.239880059970015	-0.3103448275862069	100.52527305933204	34.05673704478541	
1.7375811380037312E12	-9.207317073170731	-0.4096385542168675	-0.5662650602409639	0.36146020347097546	-9.103530819868341	-0.6128067025733094	4124.542124542124	1931.8681318681317	-1.816793893129771	13.17557251908397	-18.97709923664122	-0.2518740629685157	-0.239880059970015	-0.3103448275862069	100.52527305933204	34.05673704478541	
1.737581138008705E12	-9.182926829268293	-0.42168674698795183	-0.6144578313253012	0.3518850987432675	-9.062836624775583	-0.6104129263913823	4128.937728937729	1769.9633699633698	-1.7404580152671756	10.396946564885496	-16.793893129770993	-0.24287856071964017	-0.2338830584707646	-0.29235382308845576	100.52527305933204	34.05673704478541	
1.7375811380136792E12	-9.182926829268293	-0.43373493975903615	-0.6265060240963856	0.31119090365050867	-9.067624177139438	-0.6367444643925793	4126.007326007326	1697.4358974358972	-1.083969465648855	7.419847328244274	-14.48854961832061	-0.24287856071964017	-0.2338830584707646	-0.29235382308845576	100.52527305933204	34.05673704478541	
1.737581138018653E12	-9.158536585365853	-0.5060240963855422	-0.6024096385542169	0.473967684021544	-9.03411131059246	-0.6008378216636744	4127.472527472527	1672.5274725274724	-0.47328244274809156	4.65648854961832	-13.709923664122137	-0.24737631184407796	-0.23088455772113942	-0.2893553223388306	100.52527305933204	34.05673704478541	
1.7375811380236272E12	-9.182926829268293	-0.6024096385542169	-0.5903614457831325	0.6008378216636744	-9.122681029323758	-0.5936564931178935	4128.937728937729	1663.003663003663	0.12213740458015267	1.8015267175572518	-13.358778625954198	-0.24737631184407796	-0.23088455772113942	-0.2893553223388306	100.52527305933204	34.05673704478541	
1.737581138028601E12	-9.219512195121952	-0.674698795180723	-0.5783132530120483	0.6391382405745063	-9.156193895870736	-0.5481747456612807	4133.333333333333	1665.9340659340658	0.3053435114503817	-0.12213740458015267	-11.98473282442748	-0.2383808095952024	-0.2353823088455772	-0.29385307346326833	100.52527305933204	34.05673704478541	
1.7375811380335752E12	-9.25609756097561	-0.8072289156626506	-0.5180722891566265	0.7660083782166367	-9.16098144823459	-0.5505685218432076	4137.728937728937	1669.5970695970695	0.21374045801526717	-1.297709923664122	-12.198473282442748	-0.2383808095952024	-0.2353823088455772	-0.29385307346326833	100.5278949999535	34.05673704478541	
1.7375811380385493E12	-9.26829268292683	-0.9277108433734941	-0.5060240963855422	0.8761220825852782	-9.223219628964692	-0.5481747456612807	4147.985347985347	1690.10989010989	-1.4045801526717556	-1.66412213740458	-11.81679389312977	-0.2383808095952024	-0.24137931034482757	-0.2908545727136432	100.5278949999535	34.05673704478541	
1.7375811380435232E12	-9.304878048780488	-1.0	-0.5783132530120483	1.0125673249551166	-9.211250748055056	-0.6343506882106523	4140.65934065934	1686.4468864468863	-1.6335877862595418	-3.0839694656488548	-12.748091603053435	-0.2383808095952024	-0.24137931034482757	-0.2908545727136432	100.5278949999535	34.05673704478541	
1.7375811380484973E12	-9.317073170731708	-1.072289156626506	-0.5662650602409639	1.0628366247755834	-9.230400957510472	-0.5912627169359664	4136.263736263736	1682.051282051282	-1.6793893129770991	-3.847328244274809	-12.442748091603052	-0.24737631184407796	-0.2368815592203898	-0.29385307346326833	100.52527305933204	34.05673704478541	
1.7375811380534712E12	-9.329268292682928	-1.1686746987951808	-0.5421686746987953	1.1466187911430281	-9.22561340514662	-0.5697187312986236	4137.728937728937	1676.1904761904761	-2.2748091603053435	-3.66412213740458	-12.259541984732824	-0.24737631184407796	-0.2368815592203898	-0.29385307346326833	100.52527305933204	34.05673704478541	
1.7375811380584453E12	-9.341463414634147	-1.180722891566265	-0.5783132530120483	1.1154997007779772	-9.249551166965889	-0.6391382405745063	4143.589743589743	1681.3186813186812	-1.5419847328244274	-4.885496183206107	-13.603053435114504	-0.24887556221889054	-0.2338830584707646	-0.29535232383808097	100.52527305933204	34.05673704478541	
1.7375811380634192E12	-9.353658536585366	-1.2048192771084338	-0.5783132530120483	1.1274685816876122	-9.235188509874327	-0.5936564931178935	4150.91575091575	1696.7032967032967	-0.2900763358778626	-5.312977099236641	-13.038167938931297	-0.24887556221889054	-0.2338830584707646	-0.29535232383808097	100.5278949999535	34.05673704478541	
1.7375811380683933E12	-9.292682926829269	-1.2650602409638554	-0.5060240963855422	1.20885697187313	-9.158587672052663	-0.4883303411131059	4112.820512820513	1853.4798534798533	1.2213740458015268	-5.816793893129771	-12.80916030534351	-0.25037481259370314	-0.23238380809595202	-0.3103448275862069	100.5278949999535	34.05673704478541	
1.7375811380733674E12	-9.24390243902439	-1.3975903614457832	-0.3493975903614458	1.3596648713345303	-9.077199281867145	-0.3279473369239976	4143.589743589743	1753.8461538461538	1.3740458015267174	-6.106870229007633	-13.374045801526718	-0.25037481259370314	-0.23238380809595202	-0.3103448275862069	100.5278949999535	34.05673704478541	
1.7375811380783413E12	-9.207317073170731	-1.4096385542168675	-0.2530120481927711	1.3692399760622382	-9.050867743865949	-0.26331538001196886	4140.65934065934	1712.087912087912	2.091603053435114	-7.709923664122137	-13.251908396946565	-0.24887556221889054	-0.2353823088455772	-0.2983508245877061	100.52265112107686	34.05673704478541	
1.7375811380833154E12	-9.134146341463415	-1.5180722891566265	-0.14457831325301207	1.5080789946140036	-9.000598444045481	-0.1699581089168163	4147.985347985347	1707.6923076923076	1.7709923664122136	-8.122137404580153	-13.32824427480916	-0.24887556221889054	-0.2353823088455772	-0.2983508245877061	100.52265112107686	34.05673704478541	
1.7375811380882893E12	-9.085365853658537	-1.5903614457831325	-0.10843373493975904	1.4865350089766607	-8.967085577498503	-0.1436265709156194	4145.054945054945	1699.6336996336995	0.6259541984732824	-8.916030534351144	-12.061068702290076	-0.24137931034482757	-0.23238380809595202	-0.29535232383808097	100.52265112107686	34.05673704478541	
1.7375811380932634E12	-9.048780487804878	-1.6265060240963856	-0.12048192771084337	1.5751047277079593	-8.93836026331538	-0.1603830041891083	4140.65934065934	1690.10989010989	-0.8091603053435115	-9.755725190839694	-12.213740458015266	-0.24137931034482757	-0.23238380809595202	-0.29535232383808097	100.52265112107686	34.05673704478541	
1.7375811380982373E12	-9.012195121951219	-1.6265060240963856	-0.10843373493975904	1.5942549371633752	-8.91442250149611	-0.17474566128067026	4143.589743589743	1687.179487179487	-1.5877862595419847	-11.129770992366412	-11.969465648854962	-0.24437781109445278	-0.24287856071964017	-0.29235382308845576	100.52265112107686	34.05673704478541	
1.7375811381032114E12	-8.975609756097562	-1.5783132530120483	-0.12048192771084337	1.436265709156194	-8.871334530221423	-0.1436265709156194	4143.589743589743	1686.4468864468863	-1.83206106870229	-12.229007633587786	-12.381679389312977	-0.24437781109445278	-0.24287856071964017	-0.29235382308845576	100.52265112107686	34.05673704478541	
1.7375811381081855E12	-9.048780487804878	-1.493975903614458	-0.0963855421686747	1.4482345900658289	-8.943147815679234	-0.11968880909634949	4143.589743589743	1685.7142857142856	-0.8549618320610687	-13.557251908396946	-10.610687022900763	-0.2353823088455772	-0.239880059970015	-0.29385307346326833	100.52002918518804	34.05673704478541	
1.7375811381131594E12	-9.085365853658537	-1.4819277108433735	-0.04819277108433735	1.362058647516457	-8.98623578695392	-0.09575104727707959	4142.124542124542	1689.3772893772893	0.10687022900763359	-15.068702290076335	-11.435114503816793	-0.2353823088455772	-0.239880059970015	-0.29385307346326833	100.52002918518804	34.05673704478541	
1.7375811381181335E12	-9.109756097560975	-1.4698795180722892	0.0	1.3333333333333333	-9.012567324955116	-0.045481747456612806	4126.007326007326	1663.7362637362637	1.3129770992366412	-16.458015267175572	-10.198473282442748	-0.2368815592203898	-0.24287856071964017	-0.2863568215892054	100.52002918518804	34.05673704478541	
1.7375811381231074E12	-9.109756097560975	-1.4337349397590362	0.060240963855421686	1.3237582286056253	-9.019748653500898	0.033512866546977854	4143.589743589743	1676.923076923077	2.1068702290076335	-19.083969465648853	-9.603053435114504	-0.2368815592203898	-0.24287856071964017	-0.2863568215892054	100.52265112107686	34.05673704478541	
1.7375811381280815E12	-9.097560975609756	-1.421686746987952	0.07228915662650603	1.3309395571514062	-8.96947935368043	0.07899461400359066	4152.380952380952	1695.2380952380952	3.32824427480916	-21.526717557251906	-8.305343511450381	-0.24737631184407796	-0.22788605697151423	-0.29385307346326833	100.52265112107686	34.05673704478541	
1.7375811381330554E12	-9.048780487804878	-1.4698795180722892	0.12048192771084337	1.4219030520646319	-8.933572710951525	0.04308797127468582	4145.054945054945	1694.5054945054944	3.7251908396946565	-23.48091603053435	-7.007633587786259	-0.24737631184407796	-0.22788605697151423	-0.29385307346326833	100.52265112107686	34.05673704478541	
1.7375811381380295E12	-8.987804878048781	-1.4698795180722892	0.12048192771084337	1.3189706762417714	-8.900059844404549	0.07660083782166367	4128.937728937729	1672.5274725274724	3.7251908396946565	-26.259541984732824	-5.984732824427481	-0.24437781109445278	-0.2338830584707646	-0.29235382308845576	100.52527305933204	34.05673704478541	
1.7375811381430034E12	-8.963414634146341	-1.5783132530120483	0.07228915662650603	1.5056852184320766	-8.859365649311789	0.040694195092758824	4127.472527472527	1662.2710622710622	3.2061068702290076	-27.709923664122137	-6.717557251908397	-0.24437781109445278	-0.2338830584707646	-0.29235382308845576	100.52527305933204	34.05673704478541	
1.7375811381479775E12	-8.951219512195122	-1.4698795180722892	0.024096385542168676	1.2615200478755235	-8.811490125673249	-0.045481747456612806	4143.589743589743	1676.1904761904761	2.610687022900763	-29.572519083969464	-5.312977099236641	-0.2368815592203898	-0.2368815592203898	-0.2908545727136432	100.52527305933204	34.05673704478541	
1.7375811381529517E12	-8.926829268292684	-1.2409638554216869	0.012048192771084338	1.1011370436864152	-8.823459006582885	-0.038300418910831836	4133.333333333333	1671.7948717948716	3.877862595419847	-31.450381679389313	-3.099236641221374	-0.2368815592203898	-0.2368815592203898	-0.2908545727136432	100.5278949999535	34.05673704478541	
1.7375811381579255E12	-8.914634146341463	-1.0963855421686748	0.0	0.9886295631358468	-8.768402154398563	-0.05505685218432076	4134.798534798534	1671.0622710622708	5.083969465648854	-32.595419847328245	-1.0381679389312977	-0.239880059970015	-0.22338830584707645	-0.29385307346326833	100.5278949999535	34.05673704478541	
1.7375811381628997E12	-8.890243902439025	-0.9518072289156627	-0.04819277108433735	0.8330341113105925	-8.766008378216636	-0.06463195691202872	4142.124542124542	1683.5164835164835	6.99236641221374	-33.93893129770992	0.7633587786259541	-0.239880059970015	-0.22338830584707645	-0.29385307346326833	100.5278949999535	34.05673704478541	
1.7375811381678735E12	-8.890243902439025	-0.8072289156626506	-0.0963855421686747	0.7420706163973668	-8.777977259126272	-0.10532615200478755	4143.589743589743	1684.9816849816848	8.549618320610687	-34.3206106870229	1.5267175572519083	-0.2353823088455772	-0.24287856071964017	-0.2893553223388306	100.52265112107686	34.05673704478541	
1.7375811381728477E12	-8.902439024390244	-0.6385542168674699	-0.1566265060240964	0.5745062836624776	-8.780371035308198	-0.15559545182525433	4142.124542124542	1688.6446886446886	10.412213740458014	-34.25954198473282	1.465648854961832	-0.2353823088455772	-0.24287856071964017	-0.2893553223388306	100.52265112107686	34.05673704478541	
1.7375811381778215E12	-8.890243902439025	-0.5662650602409639	-0.18072289156626506	0.4907241172950329	-8.761220825852783	-0.17474566128067026	4127.472527472527	1668.8644688644688	11.603053435114504	-33.57251908396947	1.2213740458015268	-0.24887556221889054	-0.22788605697151423	-0.28785607196401797	100.52265112107686	34.05673704478541	
1.7375811381827957E12	-8.890243902439025	-0.46987951807228917	-0.18072289156626506	0.4236983842010772	-8.763614602034709	-0.19389587073608616	4139.194139194139	1676.1904761904761	13.145038167938932	-32.88549618320611	1.83206106870229	-0.24887556221889054	-0.22788605697151423	-0.28785607196401797	100.5278949999535	34.05673704478541	
1.7375811381877698E12	-8.865853658536585	-0.49397590361445787	-0.20481927710843376	0.43087971274685816	-8.725314183123878	-0.234590065828845	4128.937728937729	1664.4688644688645	13.572519083969466	-31.557251908396946	2.549618320610687	-0.24287856071964017	-0.2338830584707646	-0.2908545727136432	100.5278949999535	34.05673704478541	
1.7375811381927437E12	-8.76829268292683	-0.4819277108433735	-0.21686746987951808	0.4069419509275883	-8.634350688210652	-0.2704967085577498	4145.054945054945	1682.051282051282	13.145038167938932	-30.47328244274809	3.2519083969465647	-0.24287856071964017	-0.2338830584707646	-0.2908545727136432	100.5278949999535	34.05673704478541	
1.7375811381977178E12	-8.719512195121952	-0.46987951807228917	-0.3253012048192771	0.3782166367444644	-8.58886894075404	-0.36385397965290245	4145.054945054945	1689.3772893772893	12.229007633587786	-29.022900763358777	3.83206106870229	-0.24737631184407796	-0.2338830584707646	-0.2983508245877061	100.52002918518804	34.05673704478541	
