"sep=	"
Shimmer_B5B6_TimestampSync_Unix_CAL	Shimmer_B5B6_Accel_LN_X_CAL	Shimmer_B5B6_Accel_LN_Y_CAL	Shimmer_B5B6_Accel_LN_Z_CAL	Shimmer_B5B6_Accel_WR_X_CAL	Shimmer_B5B6_Accel_WR_Y_CAL	Shimmer_B5B6_Accel_WR_Z_CAL	Shimmer_B5B6_Battery_CAL	Shimmer_B5B6_Ext_Exp_A6_CAL	Shimmer_B5B6_Gyro_X_CAL	Shimmer_B5B6_Gyro_Y_CAL	Shimmer_B5B6_Gyro_Z_CAL	Shimmer_B5B6_Mag_X_CAL	Shimmer_B5B6_Mag_Y_CAL	Shimmer_B5B6_Mag_Z_CAL	Shimmer_B5B6_Pressure_BMP280_CAL	Shimmer_B5B6_Temperature_BMP280_CAL	
ms	m/(s^2)	m/(s^2)	m/(s^2)	m/(s^2)	m/(s^2)	m/(s^2)	mV	mV	deg/s	deg/s	deg/s	local_flux	local_flux	local_flux	kPa	Degrees Celsius	
1.7375809007535657E12	-9.475609756097562	-0.060240963855421686	-0.3734939759036145	0.05026929982046679	-9.374027528426092	-0.3877917414721723	4143.589743589743	1751.6483516483515	-2.946564885496183	-3.0076335877862594	-7.221374045801526	-0.2353823088455772	-0.22488755622188905	-0.3103448275862069	100.52437462143862	31.495483431592582	
1.7375809007585398E12	-9.536585365853659	-0.12048192771084337	-0.3614457831325301	0.08617594254937164	-9.464991023339318	-0.4021543985637343	4149.450549450549	1719.4139194139193	-3.0229007633587783	-1.3740458015267174	-7.587786259541985	-0.2353823088455772	-0.22488755622188905	-0.3103448275862069	100.52437462143862	31.495483431592582	
1.7375809007635142E12	-9.609756097560975	-0.16867469879518074	-0.3734939759036145	0.10771992818671454	-9.555954518252543	-0.4045481747456613	4143.589743589743	1699.6336996336995	-2.946564885496183	0.15267175572519084	-7.893129770992366	-0.22938530734632684	-0.23088455772113942	-0.3073463268365817	100.52176328441944	31.495483431592582	
1.7375809007684885E12	-9.682926829268293	-0.20481927710843376	-0.4096385542168675	0.1627767803710353	-9.61340514661879	-0.44763614602034707	4108.424908424908	1843.956043956044	-3.1908396946564883	1.618320610687023	-7.648854961832061	-0.22938530734632684	-0.23088455772113942	-0.3073463268365817	100.52176328441944	31.495483431592582	
1.737580900773463E12	-9.78048780487805	-0.22891566265060243	-0.4819277108433735	0.19868342309994014	-9.723518850987432	-0.5050867743865949	4114.285714285714	1909.8901098901097	-3.1908396946564883	2.900763358778626	-6.7328244274809155	-0.22788605697151423	-0.24137931034482757	-0.29685157421289354	100.52176328441944	31.495483431592582	
1.7375809007784373E12	-9.853658536585366	-0.26506024096385544	-0.5421686746987953	0.20586475164572113	-9.771394374625972	-0.5649311789347696	4136.263736263736	1773.6263736263736	-2.916030534351145	3.3587786259541983	-5.66412213740458	-0.22788605697151423	-0.24137931034482757	-0.29685157421289354	100.52176328441944	31.495483431592582	
1.7375809007834116E12	-9.878048780487806	-0.27710843373493976	-0.5903614457831325	0.19389587073608616	-9.761819269898265	-0.6487133453022143	4145.054945054945	1726.7399267399267	-2.748091603053435	3.7251908396946565	-4.2748091603053435	-0.21739130434782608	-0.24437781109445278	-0.3043478260869565	100.52176328441944	31.495483431592582	
1.737580900788386E12	-9.878048780487806	-0.27710843373493976	-0.6265060240963856	0.19389587073608616	-9.7737881508079	-0.701376421304608	4147.985347985347	1713.5531135531135	-2.900763358778626	3.3587786259541983	-3.16030534351145	-0.21739130434782608	-0.24437781109445278	-0.3043478260869565	100.52176328441944	31.495483431592582	
1.7375809007933604E12	-9.865853658536587	-0.26506024096385544	-0.7228915662650602	0.1891083183722322	-9.7737881508079	-0.7109515260323159	4145.054945054945	1701.8315018315018	-3.099236641221374	3.312977099236641	-2.5038167938931295	-0.2338830584707646	-0.23088455772113942	-0.3058470764617691	100.52437462143862	31.495483431592582	
1.7375809007983347E12	-9.817073170731708	-0.26506024096385544	-0.6867469879518072	0.18192698982645122	-9.71873129862358	-0.7444643925792939	4114.285714285714	1851.2820512820513	-2.427480916030534	3.236641221374046	-2.3206106870229006	-0.2338830584707646	-0.23088455772113942	-0.3058470764617691	100.52437462143862	31.495483431592582	
1.737580900803309E12	-9.78048780487805	-0.26506024096385544	-0.6987951807228916	0.19628964691801315	-9.687612208258528	-0.706163973668462	4128.937728937729	1736.9963369963368	-2.3206106870229006	3.129770992366412	-2.1221374045801524	-0.23088455772113942	-0.239880059970015	-0.3073463268365817	100.52437462143862	31.495483431592582	
1.7375809008082834E12	-9.74390243902439	-0.30120481927710846	-0.6867469879518072	0.24655894673847994	-9.625374027528427	-0.708557749850389	4139.194139194139	1704.0293040293038	-2.549618320610687	3.099236641221374	-1.5114503816793892	-0.23088455772113942	-0.239880059970015	-0.3073463268365817	100.52437462143862	31.495483431592582	
1.7375809008132578E12	-9.707317073170731	-0.3373493975903615	-0.6626506024096386	0.2848593656493118	-9.6229802513465	-0.6846199880311191	4134.798534798534	1684.249084249084	-3.16030534351145	2.9923664122137406	-0.9007633587786259	-0.2338830584707646	-0.24437781109445278	-0.3118440779610195	100.52437462143862	31.495483431592582	
1.7375809008182322E12	-9.707317073170731	-0.3373493975903615	-0.6626506024096386	0.2800718132854578	-9.625374027528427	-0.701376421304608	4152.380952380952	1698.168498168498	-3.679389312977099	2.549618320610687	-0.24427480916030533	-0.2338830584707646	-0.24437781109445278	-0.3118440779610195	100.52437462143862	31.495483431592582	
1.7375809008232065E12	-9.682926829268293	-0.30120481927710846	-0.6626506024096386	0.24655894673847994	-9.608617594254937	-0.6702573309395571	4149.450549450549	1697.4358974358972	-4.030534351145038	1.6793893129770991	-0.183206106870229	-0.22788605697151423	-0.239880059970015	-0.3043478260869565	100.52437462143862	31.495483431592582	
1.737580900828181E12	-9.707317073170731	-0.22891566265060243	-0.6385542168674699	0.20107719928186715	-9.608617594254937	-0.6487133453022143	4145.054945054945	1695.2380952380952	-4.1679389312977095	1.0076335877862594	-0.030534351145038167	-0.22788605697151423	-0.239880059970015	-0.3043478260869565	100.52437462143862	31.495483431592582	
1.7375809008331553E12	-9.731707317073171	-0.18072289156626506	-0.6385542168674699	0.1436265709156194	-9.632555356074207	-0.6223818073010173	4139.194139194139	1687.179487179487	-4.091603053435114	0.24427480916030533	-0.3969465648854962	-0.22488755622188905	-0.2338830584707646	-0.3028485757121439	100.52437462143862	31.495483431592582	
1.7375809008381296E12	-9.75609756097561	-0.16867469879518074	-0.6385542168674699	0.12447636146020347	-9.65409934171155	-0.6367444643925793	4128.937728937729	1668.8644688644688	-4.442748091603053	-0.061068702290076333	-0.3511450381679389	-0.22488755622188905	-0.2338830584707646	-0.3028485757121439	100.52437462143862	31.495483431592582	
1.737580900843104E12	-9.792682926829269	-0.14457831325301207	-0.6265060240963856	0.0933572710951526	-9.67803710353082	-0.6319569120287253	4145.054945054945	1683.5164835164835	-4.259541984732825	-0.6106870229007634	-0.9465648854961831	-0.23088455772113942	-0.2338830584707646	-0.3088455772113943	100.52437462143862	31.495483431592582	
1.7375809008480784E12	-9.792682926829269	-0.10843373493975904	-0.6265060240963856	0.03590664272890485	-9.711549970077797	-0.6558946738479952	4145.054945054945	1689.3772893772893	-4.65648854961832	-0.5190839694656488	-1.9694656488549618	-0.23088455772113942	-0.2338830584707646	-0.3088455772113943	100.52437462143862	31.495483431592582	
1.7375809008530527E12	-9.792682926829269	-0.04819277108433735	-0.674698795180723	0.0047875523638539795	-9.72591262716936	-0.7301017354877318	4147.985347985347	1698.168498168498	-4.549618320610687	-0.015267175572519083	-2.946564885496183	-0.2338830584707646	-0.2368815592203898	-0.3088455772113943	100.52437462143862	31.495483431592582	
1.737580900858027E12	-9.829268292682928	-0.024096385542168676	-0.6987951807228916	-0.03590664272890485	-9.733093955715141	-0.7157390783961699	4145.054945054945	1695.2380952380952	-4.748091603053435	0.4427480916030534	-3.7709923664122136	-0.2338830584707646	-0.2368815592203898	-0.3088455772113943	100.52437462143862	31.495483431592582	
1.7375809008630015E12	-9.817073170731708	-0.024096385542168676	-0.6867469879518072	-0.009575104727707959	-9.740275284260921	-0.713345302214243	4142.124542124542	1693.040293040293	-5.190839694656488	1.3587786259541985	-5.190839694656488	-0.2338830584707646	-0.22938530734632684	-0.3043478260869565	100.52437462143862	31.495483431592582	
1.7375809008679758E12	-9.792682926829269	-0.060240963855421686	-0.710843373493976	0.0047875523638539795	-9.697187312986236	-0.7277079593058049	4139.194139194139	1686.4468864468863	-5.32824427480916	2.732824427480916	-6.137404580152672	-0.2338830584707646	-0.22938530734632684	-0.3043478260869565	100.52437462143862	31.495483431592582	
1.7375809008729502E12	-9.74390243902439	-0.0963855421686747	-0.746987951807229	0.04308797127468582	-9.651705565529623	-0.8186714542190305	4134.798534798534	1676.1904761904761	-5.480916030534351	4.641221374045801	-7.435114503816793	-0.22338830584707645	-0.24587706146926536	-0.31334332833583206	100.52437462143862	31.495483431592582	
1.7375809008779246E12	-9.719512195121952	-0.13253012048192772	-0.7590361445783133	0.0933572710951526	-9.608617594254937	-0.8114901256732495	4114.285714285714	1841.0256410256409	-5.2824427480916025	6.122137404580153	-8.564885496183205	-0.22338830584707645	-0.24587706146926536	-0.31334332833583206	100.52437462143862	31.495483431592582	
1.737580900882899E12	-9.658536585365853	-0.16867469879518074	-0.7349397590361446	0.12208258527827648	-9.534410532615201	-0.7755834829443446	4124.542124542124	1924.5421245421244	-4.778625954198473	7.450381679389313	-9.17557251908397	-0.21889055472263869	-0.22488755622188905	-0.3148425787106447	100.52437462143862	31.495483431592582	
1.7375809008878733E12	-9.573170731707318	-0.24096385542168675	-0.6987951807228916	0.19389587073608616	-9.464991023339318	-0.7205266307600239	4123.076923076923	1955.311355311355	-4.687022900763359	8.885496183206106	-9.603053435114504	-0.21889055472263869	-0.22488755622188905	-0.3148425787106447	100.52437462143862	31.495483431592582	
1.7375809008928477E12	-9.512195121951219	-0.3132530120481928	-0.6265060240963856	0.3087971274685817	-9.364452423698385	-0.696588868940754	4123.076923076923	1968.4981684981683	-5.068702290076335	9.34351145038168	-9.694656488549619	-0.2338830584707646	-0.2368815592203898	-0.3118440779610195	100.52437462143862	31.495483431592582	
1.737580900897822E12	-9.439024390243903	-0.39759036144578314	-0.5662650602409639	0.3925792938360263	-9.321364452423698	-0.5888689407540395	4118.681318681319	1972.8937728937728	-5.007633587786259	10.305343511450381	-9.969465648854962	-0.2338830584707646	-0.2368815592203898	-0.3118440779610195	100.52698596080505	31.495483431592582	
1.7375809009027964E12	-9.414634146341463	-0.49397590361445787	-0.49397590361445787	0.46439257929383604	-9.302214242968283	-0.45960502692998206	4118.681318681319	1974.3589743589741	-5.801526717557252	10.473282442748092	-10.534351145038167	-0.22188905547226387	-0.2368815592203898	-0.30134932533733133	100.52698596080505	31.495483431592582	
1.7375809009077708E12	-9.414634146341463	-0.6144578313253012	-0.3734939759036145	0.6008378216636744	-9.333333333333334	-0.36624775583482944	4126.007326007326	1780.9523809523807	-7.358778625954198	10.67175572519084	-10.961832061068701	-0.22188905547226387	-0.2368815592203898	-0.30134932533733133	100.52698596080505	31.495483431592582	
1.737580900912745E12	-9.463414634146341	-0.6987951807228916	-0.30120481927710846	0.6678635547576302	-9.374027528426092	-0.34709754637941354	4121.611721611721	1895.970695970696	-8.977099236641221	10.793893129770993	-10.870229007633588	-0.22638680659670163	-0.22938530734632684	-0.3073463268365817	100.52698596080505	31.495483431592582	
1.7375809009177195E12	-9.512195121951219	-0.7951807228915663	-0.3253012048192771	0.7755834829443446	-9.450628366247756	-0.3782166367444644	4131.868131868132	1756.7765567765566	-10.274809160305344	11.053435114503817	-10.778625954198473	-0.22638680659670163	-0.22938530734632684	-0.3073463268365817	100.52698596080505	31.495483431592582	
1.7375809009226938E12	-9.573170731707318	-0.8915662650602411	-0.3373493975903615	0.7923399162178336	-9.505685218432076	-0.38539796529024534	4127.472527472527	1697.4358974358972	-11.267175572519083	11.389312977099236	-10.946564885496183	-0.2383808095952024	-0.22938530734632684	-0.3118440779610195	100.52698596080505	31.495483431592582	
1.7375809009276682E12	-9.621951219512196	-0.9036144578313253	-0.3734939759036145	0.8761220825852782	-9.551166965888688	-0.3758228605625374	4139.194139194139	1687.9120879120878	-11.908396946564885	11.603053435114504	-10.732824427480915	-0.2383808095952024	-0.22938530734632684	-0.3118440779610195	100.52176328441944	31.495483431592582	
1.7375809009326426E12	-9.646341463414634	-0.9518072289156627	-0.3855421686746988	0.8785158587672053	-9.548773189706763	-0.3949730700179533	4139.194139194139	1684.249084249084	-11.83206106870229	12.045801526717558	-10.442748091603052	-0.2338830584707646	-0.2338830584707646	-0.3028485757121439	100.52176328441944	31.495483431592582	
1.737580900937617E12	-9.634146341463415	-0.9759036144578314	-0.3614457831325301	0.91442250149611	-9.498503889886296	-0.38539796529024534	4121.611721611721	1855.6776556776556	-11.068702290076336	11.709923664122137	-9.770992366412214	-0.2338830584707646	-0.2338830584707646	-0.3028485757121439	100.52176328441944	31.495483431592582	
1.7375809009425913E12	-9.560975609756097	-1.0	-0.3614457831325301	0.9216038300418911	-9.457809694793536	-0.36146020347097546	4134.798534798534	1745.7875457875457	-10.244274809160306	11.572519083969466	-8.534351145038167	-0.22038980509745126	-0.24737631184407796	-0.3118440779610195	100.52437462143862	31.495483431592582	
1.7375809009475657E12	-9.5	-0.9879518072289157	-0.3493975903614458	0.9192100538599641	-9.354877318970676	-0.3542788749251945	4134.798534798534	1701.8315018315018	-9.541984732824426	11.038167938931297	-7.343511450381679	-0.22038980509745126	-0.24737631184407796	-0.3118440779610195	100.52437462143862	31.495483431592582	
1.73758090095254E12	-9.426829268292684	-0.9518072289156627	-0.3253012048192771	0.8617594254937163	-9.268701376421305	-0.33034111310592457	4111.355311355311	1850.5494505494505	-8.381679389312977	10.564885496183205	-5.877862595419847	-0.22338830584707645	-0.23238380809595202	-0.3103448275862069	100.52437462143862	31.495483431592582	
1.7375809009575142E12	-9.414634146341463	-0.9156626506024097	-0.3132530120481928	0.7995212447636146	-9.271095152603232	-0.3064033512866547	4142.124542124542	1756.7765567765566	-8.381679389312977	9.725190839694656	-4.778625954198473	-0.22338830584707645	-0.23238380809595202	-0.3103448275862069	100.52176328441944	31.495483431592582	
1.7375809009624885E12	-9.426829268292684	-0.9156626506024097	-0.2530120481927711	0.7947336923997605	-9.31897067624177	-0.2800718132854578	4146.520146520146	1720.8791208791208	-8.50381679389313	8.916030534351144	-3.633587786259542	-0.22788605697151423	-0.24287856071964017	-0.3103448275862069	100.52176328441944	31.495483431592582	
1.737580900967463E12	-9.52439024390244	-0.8915662650602411	-0.1927710843373494	0.8114901256732495	-9.476959904248952	-0.23937761819269898	4145.054945054945	1704.7619047619046	-9.221374045801527	7.83206106870229	-2.2442748091603053	-0.22788605697151423	-0.24287856071964017	-0.3103448275862069	100.52176328441944	31.495483431592582	
1.7375809009724373E12	-9.682926829268293	-0.9277108433734941	-0.20481927710843376	0.8473967684021544	-9.65409934171155	-0.22262118491921004	4155.311355311355	1708.4249084249084	-9.648854961832061	6.3206106870229	-0.6717557251908397	-0.22188905547226387	-0.23088455772113942	-0.3028485757121439	100.52698596080505	31.495483431592582	
1.7375809009774116E12	-9.841463414634147	-0.963855421686747	-0.1927710843373494	0.8880909634949132	-9.816876122082585	-0.20825852782764812	4149.450549450549	1701.8315018315018	-9.862595419847327	4.351145038167939	0.7480916030534351	-0.22188905547226387	-0.23088455772113942	-0.3028485757121439	100.52698596080505	31.495483431592582	
1.737580900982386E12	-10.012195121951219	-0.9879518072289157	-0.2530120481927711	0.93836026331538	-9.984440454817474	-0.26092160383004187	4149.450549450549	1699.6336996336995	-9.66412213740458	2.7022900763358777	1.7404580152671756	-0.22938530734632684	-0.22788605697151423	-0.3088455772113943	100.52698596080505	31.495483431592582	
1.7375809009873604E12	-10.207317073170731	-1.0120481927710845	-0.24096385542168675	0.9814482345900658	-10.161579892280072	-0.2848593656493118	4118.681318681319	1860.07326007326	-9.053435114503817	0.6259541984732824	2.0763358778625953	-0.22938530734632684	-0.22788605697151423	-0.3088455772113943	100.52437462143862	31.495483431592582	
1.7375809009923347E12	-10.365853658536587	-1.0481927710843375	-0.2530120481927711	1.0341113105924595	-10.343506882106523	-0.2800718132854578	4149.450549450549	1764.102564102564	-8.076335877862595	-1.2366412213740459	1.6946564885496183	-0.2383808095952024	-0.2338830584707646	-0.3118440779610195	100.52437462143862	31.495483431592582	
1.737580900997309E12	-10.5	-1.108433734939759	-0.24096385542168675	1.0987432675044884	-10.49670855774985	-0.24655894673847994	4153.846153846153	1736.9963369963368	-6.549618320610687	-2.3664122137404577	0.732824427480916	-0.2383808095952024	-0.2338830584707646	-0.3118440779610195	100.52437462143862	31.495483431592582	
1.7375809010022834E12	-10.670731707317074	-1.1204819277108435	-0.2530120481927711	1.1154997007779772	-10.645122681029324	-0.24416517055655296	4145.054945054945	1711.3553113553112	-5.297709923664122	-3.2061068702290076	0.12213740458015267	-0.21889055472263869	-0.21889055472263869	-0.3118440779610195	100.52437462143862	31.495483431592582	
1.7375809010072578E12	-10.78048780487805	-1.144578313253012	-0.26506024096385544	1.0843806104129263	-10.748055056852184	-0.2728904847396768	4120.14652014652	1861.5384615384614	-3.9236641221374042	-4.1679389312977095	-1.2061068702290076	-0.21889055472263869	-0.21889055472263869	-0.3118440779610195	100.52437462143862	31.495483431592582	
1.7375809010122322E12	-10.841463414634147	-1.144578313253012	-0.2530120481927711	1.0819868342309993	-10.74326750448833	-0.2728904847396768	4145.054945054945	1762.6373626373625	-2.564885496183206	-3.7709923664122136	-2.2900763358778624	-0.2143928035982009	-0.25337331334332835	-0.32233883058470764	100.52437462143862	31.495483431592582	
1.7375809010172065E12	-10.804878048780488	-1.108433734939759	-0.2530120481927711	1.0460801915020945	-10.683423099940155	-0.24895272292040693	4128.937728937729	1700.3663003663003	-1.6946564885496183	-3.618320610687023	-3.114503816793893	-0.2143928035982009	-0.25337331334332835	-0.32233883058470764	100.52176328441944	31.495483431592582	
1.737580901022181E12	-10.719512195121952	-1.036144578313253	-0.1927710843373494	0.9790544584081388	-10.573309395571513	-0.19150209455415917	4114.285714285714	1851.2820512820513	-0.7938931297709924	-3.7709923664122136	-3.465648854961832	-0.21589205397301348	-0.24137931034482757	-0.3088455772113943	100.52176328441944	31.495483431592582	
1.7375809010271553E12	-10.585365853658537	-0.9518072289156627	-0.21686746987951808	0.8617594254937163	-10.412926391382406	-0.2130460801915021	4140.65934065934	1751.6483516483515	-0.5954198473282443	-3.969465648854962	-3.969465648854962	-0.21589205397301348	-0.24137931034482757	-0.3088455772113943	100.52176328441944	31.495483431592582	
1.7375809010321296E12	-10.451219512195122	-0.8433734939759037	-0.1927710843373494	0.713345302214243	-10.286056253740275	-0.2537402752842609	4145.054945054945	1717.9487179487178	-0.13740458015267176	-4.076335877862595	-4.305343511450381	-0.22638680659670163	-0.2353823088455772	-0.3148425787106447	100.52176328441944	31.495483431592582	
1.737580901037104E12	-10.329268292682928	-0.6867469879518072	-0.20481927710843376	0.5362058647516457	-10.207061639736684	-0.24416517055655296	4131.868131868132	1683.5164835164835	-0.183206106870229	-3.5877862595419847	-4.519083969465648	-0.22638680659670163	-0.2353823088455772	-0.3148425787106447	100.52176328441944	31.495483431592582	
1.7375809010420784E12	-10.146341463414634	-0.5180722891566265	-0.22891566265060243	0.45481747456612803	-10.046678635547575	-0.20825852782764812	4155.311355311355	1698.9010989010987	0.3511450381679389	-3.7557251908396947	-4.824427480916031	-0.2338830584707646	-0.239880059970015	-0.31634182908545727	100.52176328441944	31.495483431592582	
1.7375809010470527E12	-10.02439024390244	-0.3734939759036145	-0.20481927710843376	0.31358467983243565	-9.888689407540395	-0.20586475164572113	4130.40293040293	1679.120879120879	0.3053435114503817	-2.946564885496183	-5.755725190839694	-0.2338830584707646	-0.239880059970015	-0.31634182908545727	100.52437462143862	31.495483431592582	
1.737580901052027E12	-9.890243902439025	-0.22891566265060243	-0.10843373493975904	0.16756433273488927	-9.759425493716337	-0.1627767803710353	4143.589743589743	1682.7838827838827	1.0381679389312977	-2.427480916030534	-6.33587786259542	-0.2353823088455772	-0.22488755622188905	-0.31334332833583206	100.52437462143862	31.495483431592582	
1.7375809010570015E12	-9.804878048780488	-0.07228915662650603	-0.04819277108433735	0.052663076002393776	-9.690005984440454	-0.06941950927588271	4142.124542124542	1687.179487179487	0.6259541984732824	-1.0687022900763359	-7.648854961832061	-0.2353823088455772	-0.22488755622188905	-0.31334332833583206	100.52437462143862	31.495483431592582	
1.7375809010619758E12	-9.74390243902439	-0.024096385542168676	-0.060240963855421686	-0.02154398563734291	-9.603830041891083	-0.10293237582286056	4152.380952380952	1699.6336996336995	0.24427480916030533	-0.38167938931297707	-8.244274809160306	-0.22038980509745126	-0.2353823088455772	-0.3148425787106447	100.52437462143862	31.495483431592582	
1.7375809010669502E12	-9.670731707317074	0.012048192771084338	-0.12048192771084337	-0.06702573309395571	-9.551166965888688	-0.1172950329144225	4140.65934065934	1689.3772893772893	-0.13740458015267176	0.7480916030534351	-9.16030534351145	-0.22038980509745126	-0.2353823088455772	-0.3148425787106447	100.52437462143862	31.495483431592582	
1.7375809010719246E12	-9.597560975609756	0.060240963855421686	-0.0963855421686747	-0.06702573309395571	-9.474566128067025	-0.09575104727707959	4136.263736263736	1682.7838827838827	0.015267175572519083	2.015267175572519	-9.893129770992367	-0.22488755622188905	-0.24587706146926536	-0.3148425787106447	100.52437462143862	31.495483431592582	
1.737580901076899E12	-9.52439024390244	0.012048192771084338	-0.0963855421686747	-0.052663076002393776	-9.426690604428485	-0.12447636146020347	4126.007326007326	1661.5384615384614	-0.32061068702290074	2.8702290076335877	-10.65648854961832	-0.22488755622188905	-0.24587706146926536	-0.3148425787106447	100.51915194974747	31.495483431592582	
1.7375809010818733E12	-9.487804878048781	-0.012048192771084338	-0.10843373493975904	-0.045481747456612806	-9.350089766606821	-0.11968880909634949	4123.076923076923	1846.153846153846	-0.3511450381679389	3.8167938931297707	-10.961832061068701	-0.2098950524737631	-0.2518740629685157	-0.33433283358320837	100.51915194974747	31.495483431592582	
1.7375809010868477E12	-9.414634146341463	-0.07228915662650603	-0.10843373493975904	0.033512866546977854	-9.283064033512867	-0.12926391382405744	4140.65934065934	1749.4505494505493	-0.5190839694656488	4.564885496183206	-11.98473282442748	-0.21889055472263869	-0.22638680659670163	-0.3073463268365817	100.51915194974747	31.495483431592582	
1.737580901091822E12	-9.390243902439025	-0.1566265060240964	-0.07228915662650603	0.1603830041891083	-9.259126271693596	-0.10053859964093358	4139.194139194139	1709.1575091575091	-0.2748091603053435	5.816793893129771	-12.473282442748092	-0.21889055472263869	-0.22638680659670163	-0.3073463268365817	100.51915194974747	31.495483431592582	
1.7375809010967964E12	-9.365853658536587	-0.28915662650602414	-0.08433734939759037	0.2848593656493118	-9.242369838420107	-0.08617594254937164	4137.728937728937	1687.179487179487	-0.7175572519083969	6.244274809160305	-12.82442748091603	-0.2353823088455772	-0.2368815592203898	-0.3118440779610195	100.51915194974747	31.495483431592582	
1.7375809011017708E12	-9.365853658536587	-0.43373493975903615	-0.060240963855421686	0.4189108318372232	-9.21603830041891	-0.02154398563734291	4137.728937728937	1678.3882783882782	-1.5419847328244274	6.625954198473282	-13.053435114503817	-0.2353823088455772	-0.2368815592203898	-0.3118440779610195	100.51915194974747	31.495483431592582	
1.737580901106745E12	-9.378048780487806	-0.5903614457831325	-0.04819277108433735	0.5481747456612807	-9.228007181328545	-0.06941950927588271	4142.124542124542	1686.4468864468863	-2.351145038167939	6.763358778625954	-13.145038167938932	-0.22788605697151423	-0.2383808095952024	-0.3088455772113943	100.52176328441944	31.495483431592582	
1.7375809011117195E12	-9.451219512195122	-0.710843373493976	0.0	0.701376421304608	-9.323758228605625	-0.0933572710951526	4142.124542124542	1689.3772893772893	-3.0229007633587783	6.870229007633587	-13.236641221374045	-0.22788605697151423	-0.2383808095952024	-0.3088455772113943	100.52176328441944	31.495483431592582	
1.7375809011166938E12	-9.475609756097562	-0.8795180722891567	-0.08433734939759037	0.8617594254937163	-9.374027528426092	-0.05745062836624776	4120.14652014652	1852.7472527472526	-3.5572519083969465	6.65648854961832	-13.17557251908397	-0.22188905547226387	-0.23088455772113942	-0.3028485757121439	100.52176328441944	31.495483431592582	
1.7375809011216682E12	-9.536585365853659	-1.036144578313253	-0.03614457831325302	1.0293237582286057	-9.412327947336923	-0.052663076002393776	4128.937728937729	1736.263736263736	-4.3206106870229	6.045801526717557	-12.900763358778626	-0.22188905547226387	-0.23088455772113942	-0.3028485757121439	100.52698596080505	31.495483431592582	
1.7375809011266426E12	-9.585365853658537	-1.2289156626506024	-0.024096385542168676	1.18491921005386	-9.493716337522441	-0.038300418910831836	4142.124542124542	1709.8901098901097	-4.778625954198473	4.99236641221374	-12.091603053435113	-0.22188905547226387	-0.2368815592203898	-0.3073463268365817	100.52698596080505	31.495483431592582	
1.737580901131617E12	-9.621951219512196	-1.3614457831325302	-0.012048192771084338	1.2950329144225015	-9.517654099341712	-0.02872531418312388	4121.611721611721	1865.9340659340658	-4.9465648854961835	3.3893129770992365	-11.083969465648854	-0.22188905547226387	-0.2368815592203898	-0.3073463268365817	100.52698596080505	31.495483431592582	
1.7375809011365913E12	-9.646341463414634	-1.4457831325301205	-0.024096385542168676	1.405146618791143	-9.541591861160981	-0.031119090365050867	4123.076923076923	1931.135531135531	-4.961832061068702	1.4351145038167938	-10.427480916030534	-0.21889055472263869	-0.2383808095952024	-0.3118440779610195	100.52176328441944	31.495483431592582	
1.7375809011415657E12	-9.670731707317074	-1.3734939759036144	-0.03614457831325302	1.2663076002393776	-9.572710951526032	-0.06702573309395571	4137.728937728937	1778.7545787545787	-4.900763358778626	0.015267175572519083	-6.564885496183206	-0.21889055472263869	-0.2383808095952024	-0.3118440779610195	100.52176328441944	31.495483431592582	
1.73758090114654E12	-9.695121951219512	-1.0602409638554218	-0.024096385542168676	0.9096349491322561	-9.618192698982645	-0.023937761819269897	4114.285714285714	1883.5164835164833	-4.580152671755725	0.21374045801526717	2.7938931297709924	-0.21589205397301348	-0.2593703148425787	-0.33433283358320837	100.52176328441944	31.495483431592582	
1.7375809011515144E12	-9.695121951219512	-1.7590361445783134	-0.12048192771084337	2.0299222022740873	-9.61340514661879	-0.1627767803710353	4123.076923076923	1938.4615384615383	-4.519083969465648	-2.9770992366412212	-4.824427480916031	-0.21589205397301348	-0.2593703148425787	-0.33433283358320837	100.51915194974747	31.495483431592582	
1.7375809011564885E12	-9.719512195121952	-1.8674698795180724	-0.1566265060240964	1.8240574506283662	-9.625374027528427	-0.20347097546379414	4120.14652014652	1956.0439560439559	-3.6488549618320607	-6.870229007633587	-4.65648854961832	-0.21889055472263869	-0.2368815592203898	-0.3118440779610195	100.51915194974747	31.495483431592582	
1.737580901161463E12	-9.731707317073171	-1.6626506024096386	-0.10843373493975904	1.419509275882705	-9.634949132256134	-0.1172950329144225	4139.194139194139	1794.8717948717947	-3.3435114503816794	-7.694656488549618	-1.7099236641221374	-0.21889055472263869	-0.2368815592203898	-0.3118440779610195	100.51915194974747	31.495483431592582	
1.7375809011664373E12	-9.695121951219512	-1.7590361445783134	-0.04819277108433735	1.7953321364452424	-9.589467384799521	-0.12447636146020347	4140.65934065934	1728.937728937729	-3.8931297709923665	-8.091603053435113	-3.618320610687023	-0.23088455772113942	-0.239880059970015	-0.3088455772113943	100.52176328441944	31.495483431592582	
1.7375809011714116E12	-9.658536585365853	-1.927710843373494	-0.08433734939759037	2.0323159784560145	-9.539198084979054	-0.15798922800718132	4133.333333333333	1693.040293040293	-3.7557251908396947	-9.618320610687023	-7.587786259541985	-0.23088455772113942	-0.239880059970015	-0.3088455772113943	100.52176328441944	31.495483431592582	
1.737580901176386E12	-9.609756097560975	-1.8433734939759037	-0.04819277108433735	1.601436265709156	-9.491322561340514	-0.031119090365050867	4140.65934065934	1687.179487179487	-3.297709923664122	-11.404580152671755	-6.564885496183206	-0.21739130434782608	-0.2368815592203898	-0.3028485757121439	100.52176328441944	31.495483431592582	
1.7375809011813604E12	-9.548780487804878	-1.6265060240963856	0.024096385542168676	1.4649910233393177	-9.426690604428485	0.04308797127468582	4147.985347985347	1697.4358974358972	-2.931297709923664	-13.068702290076335	-5.251908396946565	-0.21739130434782608	-0.2368815592203898	-0.3028485757121439	100.52176328441944	31.495483431592582	
1.7375809011863347E12	-9.463414634146341	-1.5060240963855422	0.10843373493975904	1.371633752244165	-9.321364452423698	0.12208258527827648	4155.311355311355	1704.7619047619046	-2.8702290076335877	-14.67175572519084	-4.549618320610687	-0.23238380809595202	-0.24137931034482757	-0.3088455772113943	100.52176328441944	31.495483431592582	
1.737580901191309E12	-9.402439024390244	-1.313253012048193	0.1566265060240964	1.172950329144225	-9.283064033512867	0.15559545182525433	4139.194139194139	1690.8424908424906	-2.3053435114503817	-16.53435114503817	-3.32824427480916	-0.23238380809595202	-0.24137931034482757	-0.3088455772113943	100.52176328441944	31.495483431592582	
1.7375809011962834E12	-9.390243902439025	-0.3614457831325301	0.21686746987951808	-0.5864751645721125	-9.218432076600838	0.2704967085577498	4155.311355311355	1702.5641025641025	-1.8015267175572518	-18.870229007633586	15.053435114503817	-0.22338830584707645	-0.239880059970015	-0.3103448275862069	100.52698596080505	31.495483431592582	
1.7375809012012578E12	-9.353658536585366	-0.9759036144578314	0.27710843373493976	1.6157989228007181	-9.295032914422501	0.17953321364452424	4152.380952380952	1705.4945054945053	-2.381679389312977	-19.755725190839694	2.0610687022900764	-0.22338830584707645	-0.239880059970015	-0.3103448275862069	100.52698596080505	31.495483431592582	
1.7375809012062322E12	-9.353658536585366	-1.5542168674698795	0.21686746987951808	1.6828246558946738	-9.285457809694794	0.14841412327947337	4147.985347985347	1704.7619047619046	-2.6717557251908395	-23.755725190839694	-6.442748091603053	-0.22038980509745126	-0.23088455772113942	-0.3058470764617691	100.52698596080505	31.495483431592582	
1.7375809012112065E12	-9.414634146341463	-1.180722891566265	0.28915662650602414	0.9216038300418911	-9.347695990424896	0.3040095751047277	4155.311355311355	1707.6923076923076	-2.6717557251908395	-24.16793893129771	-4.854961832061068	-0.22038980509745126	-0.23088455772113942	-0.3058470764617691	100.52698596080505	31.495483431592582	
1.737580901216181E12	-9.451219512195122	-0.9518072289156627	0.3614457831325301	0.8354278874925194	-9.321364452423698	0.41172950329144226	4136.263736263736	1690.10989010989	-2.1526717557251906	-22.80916030534351	-4.870229007633587	-0.22938530734632684	-0.22788605697151423	-0.3238380809595202	100.52698596080505	31.495483431592582	
1.7375809012211553E12	-9.451219512195122	-0.8915662650602411	0.39759036144578314	0.8114901256732495	-9.347695990424896	0.43566726511071213	4139.194139194139	1684.9816849816848	-1.8015267175572518	-21.603053435114504	-4.381679389312977	-0.22938530734632684	-0.22788605697151423	-0.3238380809595202	100.52698596080505	31.495483431592582	
1.7375809012261296E12	-9.475609756097562	-0.7951807228915663	0.39759036144578314	0.6846199880311191	-9.419509275882705	0.4404548174745661	4149.450549450549	1692.3076923076922	0.15267175572519084	-22.65648854961832	-3.1908396946564883	-0.22638680659670163	-0.2368815592203898	-0.3148425787106447	100.5139292874452	31.495483431592582	
1.737580901231104E12	-9.548780487804878	-0.6867469879518072	0.4096385542168675	0.5960502692998204	-9.460203470975463	0.45002992220227406	4153.846153846153	1706.9597069597069	0.9465648854961831	-23.84732824427481	-3.0076335877862594	-0.22638680659670163	-0.2368815592203898	-0.3148425787106447	100.5139292874452	31.495483431592582	
1.7375809012360784E12	-9.597560975609756	-0.6385542168674699	0.46987951807228917	0.5840813883901855	-9.4721723518851	0.48354278874925194	4108.424908424908	1847.6190476190475	1.099236641221374	-24.97709923664122	-2.549618320610687	-0.22188905547226387	-0.22638680659670163	-0.31334332833583206	100.5139292874452	31.495483431592582	
1.7375809012410527E12	-9.609756097560975	-0.6385542168674699	0.46987951807228917	0.6080191502094554	-9.493716337522441	0.5146618791143028	4109.89010989011	1909.8901098901097	1.4198473282442747	-25.358778625954198	-2.4885496183206106	-0.22188905547226387	-0.22638680659670163	-0.31334332833583206	100.51915194974747	31.495483431592582	
1.737580901246027E12	-9.634146341463415	-0.6867469879518072	0.49397590361445787	0.6104129263913823	-9.532016756433274	0.5314183123877917	4109.89010989011	1936.263736263736	1.3282442748091603	-25.31297709923664	-1.9389312977099236	-0.22038980509745126	-0.21889055472263869	-0.3058470764617691	100.51915194974747	31.495483431592582	
1.7375809012510015E12	-9.670731707317074	-0.7228915662650602	0.49397590361445787	0.687013764213046	-9.584679832435667	0.5338120885697187	4106.959706959707	1946.5201465201465	2.2748091603053435	-25.49618320610687	-1.6793893129770991	-0.22038980509745126	-0.21889055472263869	-0.3058470764617691	100.51915194974747	31.495483431592582	
1.7375809012559758E12	-9.74390243902439	-0.7951807228915663	0.5180722891566265	0.7564332734889287	-9.637342908438061	0.5457809694793536	4114.285714285714	1926.7399267399267	2.4732824427480917	-25.389312977099237	-1.450381679389313	-0.22788605697151423	-0.22338830584707645	-0.2983508245877061	100.52437462143862	31.495483431592582	
1.7375809012609502E12	-9.76829268292683	-0.8433734939759037	0.5783132530120483	0.7995212447636146	-9.706762417713943	0.5338120885697187	4114.285714285714	1944.3223443223442	2.4732824427480917	-25.48091603053435	-0.9007633587786259	-0.22788605697151423	-0.22338830584707645	-0.2983508245877061	100.52437462143862	31.495483431592582	
1.7375809012659246E12	-9.792682926829269	-0.8915662650602411	0.5783132530120483	0.8689407540394973	-9.71873129862358	0.5721125074805505	4120.14652014652	1958.974358974359	1.450381679389313	-25.083969465648853	-0.16793893129770993	-0.22038980509745126	-0.22638680659670163	-0.3043478260869565	100.52437462143862	31.495483431592582	
1.737580901270899E12	-9.817073170731708	-0.963855421686747	0.6024096385542169	0.9120287253141831	-9.697187312986236	0.5577498503889886	4128.937728937729	1780.9523809523807	0.9007633587786259	-26.244274809160306	0.8091603053435115	-0.22038980509745126	-0.22638680659670163	-0.3043478260869565	100.52176328441944	31.495483431592582	
1.7375809012758733E12	-9.78048780487805	-0.9879518072289157	0.5662650602409639	0.8952722920406941	-9.644524236983841	0.5769000598444045	4133.333333333333	1715.018315018315	0.7786259541984732	-27.34351145038168	2.198473282442748	-0.23238380809595202	-0.2338830584707646	-0.31784107946026985	100.52176328441944	31.495483431592582	
1.7375809012808477E12	-9.74390243902439	-0.9759036144578314	0.5783132530120483	0.8689407540394973	-9.611011370436865	0.5792938360263316	4139.194139194139	1695.2380952380952	0.5038167938931297	-28.50381679389313	3.282442748091603	-0.23238380809595202	-0.2338830584707646	-0.31784107946026985	100.52176328441944	31.495483431592582	
1.737580901285822E12	-9.707317073170731	-0.9036144578313253	0.5301204819277109	0.8473967684021544	-9.591861160981448	0.4859365649311789	4140.65934065934	1687.179487179487	0.3511450381679389	-30.061068702290076	4.106870229007633	-0.22038980509745126	-0.23238380809595202	-0.31634182908545727	100.52176328441944	31.495483431592582	
1.7375809012907964E12	-9.695121951219512	-0.8674698795180723	0.5542168674698795	0.8090963494913226	-9.567923399162177	0.5122681029323758	4134.798534798534	1676.923076923077	-0.21374045801526717	-31.099236641221374	4.824427480916031	-0.22038980509745126	-0.23238380809595202	-0.31634182908545727	100.52176328441944	31.495483431592582	
1.7375809012957708E12	-9.658536585365853	-0.8313253012048193	0.5301204819277109	0.7612208258527827	-9.551166965888688	0.45960502692998206	4143.589743589743	1682.051282051282	0.10687022900763359	-32.47328244274809	4.977099236641221	-0.22338830584707645	-0.22488755622188905	-0.3103448275862069	100.52176328441944	31.495483431592582	
1.737580901300745E12	-9.634146341463415	-0.855421686746988	0.49397590361445787	0.7851585876720526	-9.512866546977857	0.46918013165769	4142.124542124542	1687.9120879120878	0.07633587786259542	-33.45038167938931	5.007633587786259	-0.22338830584707645	-0.22488755622188905	-0.3103448275862069	100.51915194974747	31.495483431592582	
1.7375809013057195E12	-9.609756097560975	-0.8313253012048193	0.44578313253012053	0.7516457211250748	-9.520047875523638	0.44763614602034707	4147.985347985347	1697.4358974358972	0.564885496183206	-34.82442748091603	4.931297709923664	-0.22488755622188905	-0.21889055472263869	-0.3073463268365817	100.51915194974747	31.495483431592582	
1.7375809013106938E12	-9.634146341463415	-0.855421686746988	0.43373493975903615	0.8378216636744464	-9.498503889886296	0.43566726511071213	4146.520146520146	1695.970695970696	0.8244274809160305	-35.43511450381679	4.931297709923664	-0.22488755622188905	-0.21889055472263869	-0.3073463268365817	100.51915194974747	31.495483431592582	
1.7375809013156682E12	-9.634146341463415	-0.8674698795180723	0.3734939759036145	0.7707959305804907	-9.517654099341712	0.3734290843806104	4140.65934065934	1687.9120879120878	1.1755725190839694	-36.76335877862595	4.870229007633587	-0.23238380809595202	-0.2353823088455772	-0.3103448275862069	100.52176328441944	31.495483431592582	
1.7375809013206426E12	-9.658536585365853	-0.8433734939759037	0.3253012048192771	0.7684021543985637	-9.567923399162177	0.2992220227408737	4143.589743589743	1686.4468864468863	1.3893129770992365	-37.02290076335878	4.1679389312977095	-0.23238380809595202	-0.2353823088455772	-0.3103448275862069	100.52176328441944	31.495483431592582	
1.737580901325617E12	-9.658536585365853	-0.8795180722891567	0.3493975903614458	0.8043087971274686	-9.541591861160981	0.2800718132854578	4145.054945054945	1690.10989010989	1.3282442748091603	-36.94656488549618	3.633587786259542	-0.22188905547226387	-0.22788605697151423	-0.3058470764617691	100.52176328441944	31.495483431592582	
1.7375809013305913E12	-9.646341463414634	-0.8433734939759037	0.26506024096385544	0.7899461400359066	-9.563135846798325	0.26570915619389585	4142.124542124542	1690.8424908424906	1.618320610687023	-37.02290076335878	2.8244274809160306	-0.22188905547226387	-0.22788605697151423	-0.3058470764617691	100.51915194974747	31.495483431592582	
1.7375809013355657E12	-9.646341463414634	-0.8313253012048193	0.20481927710843376	0.7827648114901257	-9.541591861160981	0.22501496110113703	4140.65934065934	1686.4468864468863	3.129770992366412	-36.396946564885496	2.1221374045801524	-0.2383808095952024	-0.22938530734632684	-0.3088455772113943	100.51915194974747	31.495483431592582	
1.73758090134054E12	-9.646341463414634	-0.855421686746988	0.3132530120481928	0.8162776780371035	-9.534410532615201	0.2872531418312388	4142.124542124542	1689.3772893772893	3.9236641221374042	-36.44274809160305	1.3129770992366412	-0.2383808095952024	-0.22938530734632684	-0.3088455772113943	100.51915194974747	31.495483431592582	
1.7375809013455144E12	-9.670731707317074	-0.855421686746988	0.4096385542168675	0.8138839018551766	-9.529622980251347	0.4380610412926391	4146.520146520146	1693.040293040293	4.870229007633587	-35.786259541984734	0.3511450381679389	-0.24737631184407796	-0.23088455772113942	-0.3103448275862069	100.52176328441944	31.495483431592582	
1.7375809013504888E12	-9.670731707317074	-0.8674698795180723	0.5301204819277109	0.8234590065828845	-9.584679832435667	0.5769000598444045	4143.589743589743	1687.179487179487	5.190839694656488	-35.41984732824427	-0.5801526717557252	-0.24737631184407796	-0.23088455772113942	-0.3103448275862069	100.52176328441944	31.495483431592582	
1.737580901355463E12	-9.75609756097561	-0.8915662650602411	0.6385542168674699	0.8689407540394973	-9.67085577498504	0.6128067025733094	4114.285714285714	1845.4212454212452	5.068702290076335	-35.43511450381679	-1.3129770992366412	-0.23088455772113942	-0.2353823088455772	-0.3043478260869565	100.52176328441944	31.495483431592582	
1.7375809013604373E12	-9.853658536585366	-0.9277108433734941	0.6506024096385542	0.9168162776780371	-9.771394374625972	0.5888689407540395	4106.959706959707	1907.6923076923076	3.9847328244274807	-34.93129770992366	-1.7099236641221374	-0.23088455772113942	-0.2353823088455772	-0.3043478260869565	100.52437462143862	31.495483431592582	
1.7375809013654116E12	-9.926829268292684	-0.9759036144578314	0.6506024096385542	0.9455415918611609	-9.847995212447636	0.6056253740275284	4118.681318681319	1947.2527472527472	2.9618320610687023	-35.19083969465649	-1.4809160305343512	-0.22338830584707645	-0.21889055472263869	-0.3103448275862069	100.52437462143862	31.495483431592582	
1.737580901370386E12	-9.987804878048781	-0.9879518072289157	0.6265060240963856	0.9622980251346499	-9.864751645721125	0.6271693596648713	4124.542124542124	1969.9633699633698	3.0381679389312977	-35.26717557251908	-2.3053435114503817	-0.22338830584707645	-0.21889055472263869	-0.3103448275862069	100.52437462143862	31.495483431592582	
1.7375809013753604E12	-10.0	-0.9759036144578314	0.6385542168674699	0.9622980251346499	-9.919808497905446	0.5840813883901855	4145.054945054945	1808.058608058608	3.2671755725190836	-35.41984732824427	-2.4122137404580153	-0.23088455772113942	-0.24887556221889054	-0.3103448275862069	100.51915194974747	31.495483431592582	
1.7375809013803347E12	-10.0	-0.9879518072289157	0.5903614457831325	0.935966487133453	-9.915020945541592	0.5577498503889886	4123.076923076923	1907.6923076923076	4.183206106870228	-35.46564885496183	-2.6259541984732824	-0.23088455772113942	-0.24887556221889054	-0.3103448275862069	100.51915194974747	31.495483431592582	
1.737580901385309E12	-10.012195121951219	-0.9759036144578314	0.5903614457831325	0.9239976062238181	-9.91741472172352	0.5769000598444045	4127.472527472527	1758.2417582417581	4.564885496183206	-35.23664122137404	-2.916030534351145	-0.2383808095952024	-0.22788605697151423	-0.3073463268365817	100.51915194974747	31.495483431592582	
1.7375809013902834E12	-10.036585365853659	-0.710843373493976	0.6144578313253012	0.8090963494913226	-9.915020945541592	0.5936564931178935	4139.194139194139	1712.8205128205127	5.679389312977099	-34.62595419847328	-0.38167938931297707	-0.2383808095952024	-0.22788605697151423	-0.3073463268365817	100.52437462143862	31.495483431592582	
1.7375809013952578E12	-10.012195121951219	0.03614457831325302	0.710843373493976	0.3758228605625374	-9.912627169359665	0.6487133453022143	4134.798534798534	1687.179487179487	7.923664122137405	-33.6793893129771	17.450381679389313	-0.2338830584707646	-0.22338830584707645	-0.3028485757121439	100.52437462143862	31.495483431592582	
1.7375809014002322E12	-9.987804878048781	-1.7951807228915664	0.5783132530120483	2.5493716337522443	-9.90065828845003	0.45002992220227406	4131.868131868132	1670.3296703296703	6.1679389312977095	-34.70229007633588	-9.603053435114504	-0.2338830584707646	-0.22338830584707645	-0.3028485757121439	100.52437462143862	31.495483431592582	
1.7375809014052065E12	-10.0	-1.3373493975903614	0.6024096385542169	1.0197486535008977	-9.881508078994614	0.5769000598444045	4136.263736263736	1675.4578754578754	5.526717557251908	-35.93893129770992	-2.7022900763358777	-0.2353823088455772	-0.2353823088455772	-0.3028485757121439	100.52698596080505	31.495483431592582	
1.737580901410181E12	-9.951219512195122	-1.0240963855421688	0.7590361445783133	0.9216038300418911	-9.867145421903052	0.7588270496708558	4130.40293040293	1669.5970695970695	3.847328244274809	-32.82442748091603	-2.4122137404580153	-0.2353823088455772	-0.2353823088455772	-0.3028485757121439	100.52698596080505	31.495483431592582	
1.7375809014151553E12	-9.963414634146341	-1.036144578313253	0.8072289156626506	0.9862357869539198	-9.850388988629563	0.7995212447636146	4114.285714285714	1838.095238095238	3.2213740458015265	-30.519083969465647	-2.1221374045801524	-0.2383808095952024	-0.22788605697151423	-0.3028485757121439	100.52698596080505	31.495483431592582	
1.7375809014201296E12	-9.963414634146341	-1.108433734939759	0.819277108433735	1.0365050867743866	-9.874326750448834	0.8258527827648114	4134.798534798534	1738.4615384615383	2.9618320610687023	-29.63358778625954	-1.3893129770992365	-0.24137931034482757	-0.22938530734632684	-0.3088455772113943	100.52176328441944	31.495483431592582	
1.737580901425104E12	-9.951219512195122	-1.108433734939759	0.8674698795180723	1.0412926391382404	-9.893476959904248	0.8809096349491322	4121.611721611721	1877.6556776556774	3.114503816793893	-30.396946564885496	-0.9007633587786259	-0.24137931034482757	-0.22938530734632684	-0.3088455772113943	100.52176328441944	31.495483431592582	
1.7375809014300784E12	-9.963414634146341	-1.108433734939759	0.9277108433734941	1.0484739676840216	-9.855176540993417	0.947935368043088	4140.65934065934	1762.6373626373625	2.564885496183206	-30.183206106870227	-1.0687022900763359	-0.2338830584707646	-0.2383808095952024	-0.30134932533733133	100.52176328441944	31.495483431592582	
1.7375809014350527E12	-10.0	-1.1325301204819278	0.9879518072289157	1.0819868342309993	-9.879114302812686	0.9790544584081388	4115.750915750916	1881.3186813186812	1.7557251908396947	-30.35114503816794	-0.9923664122137404	-0.2338830584707646	-0.2383808095952024	-0.30134932533733133	100.52176328441944	31.495483431592582	
1.737580901440027E12	-10.0	-1.180722891566265	1.072289156626506	1.1394374625972472	-9.871932974266906	1.0460801915020945	4109.89010989011	1923.8095238095236	1.9694656488549618	-29.66412213740458	-1.129770992366412	-0.23238380809595202	-0.21889055472263869	-0.3058470764617691	100.52176328441944	31.495483431592582	
1.7375809014450015E12	-10.02439024390244	-1.2771084337349399	1.1325301204819278	1.2184320766008379	-9.915020945541592	1.1178934769599043	4111.355311355311	1942.8571428571427	1.4198473282442747	-30.213740458015266	-1.114503816793893	-0.23238380809595202	-0.21889055472263869	-0.3058470764617691	100.52176328441944	31.495483431592582	
1.7375809014499758E12	-10.036585365853659	-1.3614457831325302	1.144578313253012	1.3381208856971873	-9.934171154997008	1.1466187911430281	4111.355311355311	1950.9157509157508	0.5801526717557252	-30.80916030534351	-0.8091603053435115	-0.24137931034482757	-0.22038980509745126	-0.3058470764617691	100.52437462143862	31.495483431592582	
1.7375809014549502E12	-10.048780487804878	-1.4457831325301205	1.2048192771084338	1.3788150807899462	-9.974865350089766	1.1154997007779772	4147.985347985347	1806.5934065934064	-1.0229007633587786	-31.908396946564885	-0.4427480916030534	-0.24137931034482757	-0.22038980509745126	-0.3058470764617691	100.52437462143862	31.495483431592582	
1.7375809014599246E12	-10.060975609756097	-1.530120481927711	1.216867469879518	1.5008976660682225	-9.970077797725912	1.158587672052663	4137.728937728937	1728.2051282051282	-2.4122137404580153	-32.68702290076336	0.030534351145038167	-0.22638680659670163	-0.24137931034482757	-0.29985007496251875	100.52437462143862	31.495483431592582	
1.737580901464899E12	-10.073170731707318	-1.63855421686747	1.2530120481927711	1.5918611609814481	-9.962896469180132	1.1944943147815679	4146.520146520146	1709.1575091575091	-3.9389312977099236	-34.30534351145038	0.7175572519083969	-0.22638680659670163	-0.24137931034482757	-0.29985007496251875	100.52698596080505	31.495483431592582	
1.7375809014698733E12	-10.085365853658537	-1.6987951807228916	1.2409638554216869	1.642130460801915	-9.962896469180132	1.18491921005386	4146.520146520146	1701.098901098901	-5.465648854961832	-35.57251908396947	1.3129770992366412	-0.22938530734632684	-0.22938530734632684	-0.2983508245877061	100.52698596080505	31.495483431592582	
1.7375809014748477E12	-10.060975609756097	-1.746987951807229	1.2409638554216869	1.6732495511669658	-9.967684021543985	1.180131657690006	4145.054945054945	1696.7032967032967	-6.946564885496183	-36.68702290076336	2.183206106870229	-0.22938530734632684	-0.22938530734632684	-0.2983508245877061	100.52698596080505	31.495483431592582	
1.737580901479822E12	-10.048780487804878	-1.7590361445783134	1.180722891566265	1.6900059844404547	-9.91741472172352	1.1370436864153202	4145.054945054945	1695.2380952380952	-7.114503816793893	-37.83206106870229	3.297709923664122	-0.2353823088455772	-0.23238380809595202	-0.30134932533733133	100.51915194974747	31.495483431592582	
1.7375809014847964E12	-10.02439024390244	-1.7831325301204821	1.0963855421686748	1.7498503889886294	-9.90065828845003	1.0412926391382404	4115.750915750916	1853.4798534798533	-6.366412213740458	-38.01526717557252	3.801526717557252	-0.2353823088455772	-0.23238380809595202	-0.30134932533733133	100.51915194974747	31.495483431592582	
1.7375809014897708E12	-9.951219512195122	-1.7349397590361446	0.9879518072289157	1.5272292040694195	-9.814482345900657	1.0005984440454818	4131.868131868132	1739.194139194139	-5.603053435114504	-38.62595419847328	4.854961832061068	-0.24437781109445278	-0.2383808095952024	-0.3088455772113943	100.51915194974747	31.495483431592582	
1.737580901494745E12	-9.853658536585366	-1.6265060240963856	0.9518072289156627	1.5415918611609813	-9.742669060442848	0.935966487133453	4095.238095238095	1852.0146520146518	-4.7328244274809155	-39.19083969465649	4.3206106870229	-0.24437781109445278	-0.2383808095952024	-0.3088455772113943	100.52176328441944	31.495483431592582	
1.7375809014997195E12	-9.890243902439025	-1.6265060240963856	0.8072289156626506	1.4817474566128066	-9.80490724117295	0.708557749850389	4104.029304029304	1905.4945054945053	-5.251908396946565	-40.15267175572519	5.175572519083969	-0.2338830584707646	-0.24437781109445278	-0.2983508245877061	100.52176328441944	31.495483431592582	
1.7375809015046938E12	-10.109756097560975	-1.5060240963855422	0.5783132530120483	1.2615200478755235	-10.09934171154997	0.3877917414721723	4118.681318681319	1946.5201465201465	-6.854961832061068	-41.43511450381679	7.190839694656488	-0.2338830584707646	-0.24437781109445278	-0.2983508245877061	100.52176328441944	31.495483431592582	
1.7375809015096682E12	-10.353658536585366	-1.2650602409638554	0.30120481927710846	1.0700179533213645	-10.35308198683423	0.17953321364452424	4145.054945054945	1798.5347985347985	-5.633587786259541	-40.274809160305345	5.633587786259541	-0.24287856071964017	-0.23238380809595202	-0.30134932533733133	100.52176328441944	31.495483431592582	
1.7375809015146426E12	-10.536585365853659	-1.0602409638554218	0.07228915662650603	0.8067025733093955	-10.539796529024535	0.06463195691202872	4128.937728937729	1715.018315018315	-0.030534351145038167	-35.02290076335878	4.030534351145038	-0.24287856071964017	-0.23238380809595202	-0.30134932533733133	100.52176328441944	31.495483431592582	
1.737580901519617E12	-10.609756097560975	-0.39759036144578314	0.0963855421686747	0.059844404548174746	-10.535008976660682	0.15080789946140036	4133.333333333333	1687.179487179487	0.9923664122137404	-35.49618320610687	-0.4427480916030534	-0.2518740629685157	-0.23088455772113942	-0.3058470764617691	100.52176328441944	31.495483431592582	
1.7375809015245913E12	-10.75609756097561	-0.12048192771084337	0.03614457831325302	0.07899461400359066	-10.841412327947337	-0.06941950927588271	4146.520146520146	1692.3076923076922	2.015267175572519	-32.44274809160305	-5.007633587786259	-0.2518740629685157	-0.23088455772113942	-0.3058470764617691	100.52176328441944	31.495483431592582	
1.7375809015295657E12	-11.060975609756097	0.12048192771084337	-0.24096385542168675	-0.4069419509275883	-11.18132854578097	-0.36624775583482944	4128.937728937729	1671.0622710622708	2.0	-30.213740458015266	-6.259541984732824	-0.25037481259370314	-0.22338830584707645	-0.29235382308845576	100.52176328441944	31.495483431592582	
1.73758090153454E12	-11.487804878048781	0.024096385542168676	-0.5542168674698795	0.040694195092758824	-11.447037701974866	-0.6535008976660682	4136.263736263736	1676.1904761904761	4.748091603053435	-21.862595419847327	-9.053435114503817	-0.25037481259370314	-0.22338830584707645	-0.29235382308845576	100.52176328441944	31.495483431592582	
1.7375809015395144E12	-11.621951219512196	1.3734939759036144	-0.5060240963855422	-1.0843806104129263	-11.549970077797726	-0.6415320167564332	4134.798534798534	1671.7948717948716	3.068702290076336	-24.97709923664122	-8.80916030534351	-0.24287856071964017	-0.22038980509745126	-0.29235382308845576	100.52176328441944	31.495483431592582	
1.7375809015444888E12	-11.74390243902439	2.4578313253012047	-0.3614457831325301	-3.2076600837821663	-11.68162776780371	-0.4380610412926391	4142.124542124542	1683.5164835164835	-4.5038167938931295	-18.564885496183205	13.48091603053435	-0.24287856071964017	-0.22038980509745126	-0.29235382308845576	100.52176328441944	31.495483431592582	
1.7375809015494631E12	-11.817073170731708	1.0481927710843375	-0.5542168674698795	-0.08138839018551765	-11.832435667265111	-0.5481747456612807	4147.985347985347	1695.970695970696	-5.557251908396946	-14.076335877862595	-21.358778625954198	-0.24437781109445278	-0.239880059970015	-0.2983508245877061	100.52176328441944	31.495483431592582	
1.7375809015544373E12	-11.817073170731708	1.674698795180723	-0.674698795180723	-1.8264512268102933	-11.719928186714542	-0.7564332734889287	4139.194139194139	1687.179487179487	-5.603053435114504	-13.801526717557252	-14.50381679389313	-0.24437781109445278	-0.239880059970015	-0.2983508245877061	100.51654061742272	31.495483431592582	
1.7375809015594116E12	-11.817073170731708	2.036144578313253	-0.8674698795180723	-1.886295631358468	-11.844404548174746	-1.0293237582286057	4134.798534798534	1676.923076923077	-5.007633587786259	-3.1908396946564883	-13.068702290076335	-0.24287856071964017	-0.2338830584707646	-0.3028485757121439	100.51654061742272	31.495483431592582	
1.737580901564386E12	-11.75609756097561	1.602409638554217	-0.674698795180723	-1.0580490724117295	-11.684021543985637	-0.708557749850389	4121.611721611721	1852.0146520146518	-9.81679389312977	-1.7709923664122136	-32.534351145038165	-0.24287856071964017	-0.2338830584707646	-0.3028485757121439	100.51654061742272	31.495483431592582	
1.7375809015693604E12	-11.804878048780488	1.566265060240964	-0.8915662650602411	-1.6947935368043088	-11.763016157989227	-1.0029922202274086	4136.263736263736	1749.4505494505493	-12.702290076335878	0.41221374045801523	-24.198473282442748	-0.23238380809595202	-0.24737631184407796	-0.29685157421289354	100.52618144191179	31.549558987101772	
1.7375809015743347E12	-11.695121951219512	1.6265060240963856	-1.108433734939759	-1.7354877318970676	-11.581089168162777	-1.2040694195092758	4146.520146520146	1717.9487179487178	-14.106870229007633	1.9083969465648853	-20.549618320610687	-0.23238380809595202	-0.24737631184407796	-0.29685157421289354	100.52618144191179	31.549558987101772	
1.737580901579309E12	-11.5	1.566265060240964	-1.1566265060240966	-1.6086175942549372	-11.351286654697786	-1.2471573907839617	4152.380952380952	1712.087912087912	-16.366412213740457	4.442748091603053	-19.114503816793892	-0.24737631184407796	-0.2368815592203898	-0.3028485757121439	100.52618144191179	31.549558987101772	
1.7375809015842834E12	-11.134146341463415	1.2530120481927711	-1.0843373493975905	-1.2567324955116697	-11.006582884500299	-1.1250748055056852	4147.985347985347	1707.6923076923076	-19.526717557251906	7.465648854961832	-17.908396946564885	-0.24737631184407796	-0.2368815592203898	-0.3028485757121439	100.52879300661019	31.549558987101772	
1.7375809015892578E12	-10.78048780487805	0.7951807228915663	-0.8795180722891567	-0.7707959305804907	-10.62357869539198	-0.9096349491322561	4150.91575091575	1706.227106227106	-22.946564885496183	12.015267175572518	-16.35114503816794	-0.2518740629685157	-0.2353823088455772	-0.30134932533733133	100.52879300661019	31.549558987101772	
1.7375809015942322E12	-10.5	0.26506024096385544	-0.6987951807228916	-0.2728904847396768	-10.355475763016157	-0.7277079593058049	4145.054945054945	1698.9010989010987	-25.236641221374043	16.229007633587784	-13.358778625954198	-0.2518740629685157	-0.2353823088455772	-0.30134932533733133	100.52879300661019	31.549558987101772	
1.7375809015992065E12	-10.329268292682928	-0.26506024096385544	-0.5542168674698795	0.2513464991023339	-10.23339317773788	-0.5481747456612807	4147.985347985347	1701.8315018315018	-27.16030534351145	18.946564885496183	-9.419847328244275	-0.25487256371814093	-0.2368815592203898	-0.3073463268365817	100.53401614304984	31.549558987101772	
1.737580901604181E12	-10.304878048780488	-0.6867469879518072	-0.4819277108433735	0.6511071214841412	-10.14721723518851	-0.5266307600239377	4136.263736263736	1687.9120879120878	-29.61832061068702	19.740458015267176	-4.7328244274809155	-0.25487256371814093	-0.2368815592203898	-0.3073463268365817	100.53401614304984	31.549558987101772	
1.7375809016091553E12	-10.304878048780488	-0.9759036144578314	-0.5421686746987953	0.9168162776780371	-10.197486535008977	-0.5769000598444045	4134.798534798534	1676.923076923077	-31.068702290076335	18.091603053435115	-0.3053435114503817	-0.24587706146926536	-0.23238380809595202	-0.29985007496251875	100.53401614304984	31.549558987101772	
1.7375809016141296E12	-10.439024390243903	-1.2048192771084338	-0.674698795180723	1.1250748055056852	-10.343506882106523	-0.7348892878515858	4123.076923076923	1852.7472527472526	-31.755725190839694	15.236641221374045	2.259541984732824	-0.24587706146926536	-0.23238380809595202	-0.29985007496251875	100.53140457365622	31.549558987101772	
1.737580901619104E12	-10.548780487804878	-1.3975903614457832	-0.783132530120482	1.3046080191502094	-10.513464991023339	-0.8378216636744464	4139.194139194139	1750.9157509157508	-30.6412213740458	12.091603053435113	3.4198473282442747	-0.2338830584707646	-0.2368815592203898	-0.30134932533733133	100.53140457365622	31.549558987101772	
1.7375809016240784E12	-10.695121951219512	-1.6265060240963856	-0.9156626506024097	1.6038300418910831	-10.630760023937762	-0.952722920406942	4142.124542124542	1716.4835164835163	-28.16793893129771	9.572519083969466	3.068702290076336	-0.2338830584707646	-0.2368815592203898	-0.30134932533733133	100.53140457365622	31.549558987101772	
1.7375809016290527E12	-10.841463414634147	-1.9397590361445785	-1.0843373493975905	1.9461400359066428	-10.800718132854579	-1.0795930580490725	4140.65934065934	1695.970695970696	-24.13740458015267	7.755725190839694	2.519083969465649	-0.23088455772113942	-0.2098950524737631	-0.3028485757121439	100.53401614304984	31.549558987101772	
1.737580901634027E12	-10.902439024390244	-2.240963855421687	-1.2289156626506024	2.2262118491921004	-10.855774985038899	-1.2327947336923997	4111.355311355311	1848.3516483516482	-19.16030534351145	6.244274809160305	2.0610687022900764	-0.23088455772113942	-0.2098950524737631	-0.3028485757121439	100.53401614304984	31.549558987101772	
1.7375809016390015E12	-10.914634146341465	-2.4457831325301207	-1.313253012048193	2.3961699581089166	-10.843806104129264	-1.3309395571514062	4112.820512820513	1916.4835164835163	-14.82442748091603	3.4198473282442747	2.030534351145038	-0.22038980509745126	-0.23238380809595202	-0.31634182908545727	100.53401614304984	31.549558987101772	
1.7375809016439758E12	-10.878048780487806	-2.5903614457831328	-1.421686746987952	2.503889886295631	-10.817474566128066	-1.409934171154997	4121.611721611721	1952.3809523809523	-11.221374045801527	1.0076335877862594	2.854961832061069	-0.22038980509745126	-0.23238380809595202	-0.31634182908545727	100.53401614304984	31.549558987101772	
1.7375809016489502E12	-10.817073170731708	-2.626506024096386	-1.4096385542168675	2.5182525433871934	-10.709754637941352	-1.393177737881508	4131.868131868132	1780.2197802197802	-9.648854961832061	-1.648854961832061	3.7862595419847325	-0.24437781109445278	-0.22338830584707645	-0.29985007496251875	100.53401614304984	31.549558987101772	
1.7375809016539246E12	-10.670731707317074	-2.566265060240964	-1.385542168674699	2.4344703770197484	-10.532615200478755	-1.402752842609216	4134.798534798534	1715.7509157509157	-8.091603053435113	-3.8625954198473282	4.290076335877862	-0.24437781109445278	-0.22338830584707645	-0.29985007496251875	100.53401614304984	31.549558987101772	
1.737580901658899E12	-10.451219512195122	-2.397590361445783	-1.349397590361446	2.288450029922202	-10.29802513464991	-1.390783961699581	4114.285714285714	1857.142857142857	-8.412213740458014	-6.259541984732824	4.152671755725191	-0.24737631184407796	-0.22638680659670163	-0.3043478260869565	100.53140457365622	31.549558987101772	
1.7375809016638733E12	-10.219512195121952	-2.2289156626506026	-1.4819277108433735	2.096947935368043	-10.053859964093357	-1.5463794135248354	4150.91575091575	1768.4981684981683	-8.15267175572519	-7.3893129770992365	3.4351145038167936	-0.24737631184407796	-0.22638680659670163	-0.3043478260869565	100.53140457365622	31.549558987101772	
1.7375809016688477E12	-9.951219512195122	-1.9759036144578315	-1.6265060240963856	1.8049072411729503	-9.778575703171754	-1.7019748653500897	4147.985347985347	1731.135531135531	-8.0	-8.458015267175572	2.381679389312977	-0.24437781109445278	-0.22638680659670163	-0.3103448275862069	100.53140457365622	31.549558987101772	
1.737580901673822E12	-9.658536585365853	-1.6867469879518073	-1.7349397590361446	1.5104727707959305	-9.46259724715739	-1.8025134649910233	4143.589743589743	1704.0293040293038	-8.198473282442748	-9.954198473282442	1.8625954198473282	-0.24437781109445278	-0.22638680659670163	-0.3103448275862069	100.53140457365622	31.549558987101772	
1.7375809016787964E12	-9.390243902439025	-1.3734939759036144	-1.8192771084337351	1.16098144823459	-9.20885697187313	-1.9652902453620587	4155.311355311355	1707.6923076923076	-9.450381679389313	-12.0	0.7480916030534351	-0.24137931034482757	-0.2368815592203898	-0.3088455772113943	100.53140457365622	31.549558987101772	
1.7375809016837708E12	-9.182926829268293	-1.072289156626506	-1.9879518072289157	0.9024536205864752	-9.005385996409336	-2.082585278276481	4145.054945054945	1699.6336996336995	-10.946564885496183	-14.702290076335878	0.13740458015267176	-0.24137931034482757	-0.2368815592203898	-0.3088455772113943	100.53140457365622	31.549558987101772	
1.737580901688745E12	-9.0	-0.7951807228915663	-2.144578313253012	0.6056253740275284	-8.813883901855176	-2.2166367444643926	4147.985347985347	1702.5641025641025	-12.6412213740458	-17.419847328244273	-0.2900763358778626	-0.2383808095952024	-0.2383808095952024	-0.30134932533733133	100.52879300661019	31.549558987101772	
1.7375809016937195E12	-8.853658536585366	-0.49397590361445787	-2.253012048192771	0.2848593656493118	-8.696588868940754	-2.348294434470377	4153.846153846153	1711.3553113553112	-13.98473282442748	-19.832061068702288	-1.2061068702290076	-0.2383808095952024	-0.2383808095952024	-0.30134932533733133	100.52879300661019	31.549558987101772	
1.7375809016986938E12	-8.74390243902439	-0.21686746987951808	-2.3855421686746987	0.05026929982046679	-8.600837821663674	-2.4751645721125075	4145.054945054945	1701.098901098901	-15.755725190839694	-22.015267175572518	-2.1068702290076335	-0.24437781109445278	-0.21739130434782608	-0.3058470764617691	100.52879300661019	31.549558987101772	
1.7375809017036682E12	-8.658536585365853	0.04819277108433735	-2.4819277108433737	-0.18192698982645122	-8.533812088569718	-2.554159186116098	4134.798534798534	1682.7838827838827	-16.671755725190838	-23.34351145038168	-3.3587786259541983	-0.24437781109445278	-0.21739130434782608	-0.3058470764617691	100.52879300661019	31.549558987101772	
1.7375809017086426E12	-8.621951219512196	0.26506024096385544	-2.566265060240964	-0.4045481747456613	-8.49311789347696	-2.6116098144823456	4139.194139194139	1682.051282051282	-17.48091603053435	-23.96946564885496	-4.442748091603053	-0.22488755622188905	-0.24437781109445278	-0.3088455772113943	100.52879300661019	31.549558987101772	
1.737580901713617E12	-8.609756097560975	0.45783132530120485	-2.6506024096385543	-0.5649311789347696	-8.555356074207062	-2.736086175942549	4143.589743589743	1684.249084249084	-17.786259541984734	-24.0	-5.9541984732824424	-0.22488755622188905	-0.24437781109445278	-0.3088455772113943	100.52879300661019	31.549558987101772	
1.7375809017185913E12	-8.707317073170731	0.6626506024096386	-2.819277108433735	-0.7612208258527827	-8.6918013165769	-2.8821065230400955	4152.380952380952	1698.168498168498	-17.84732824427481	-23.114503816793892	-7.908396946564885	-0.24587706146926536	-0.2128935532233883	-0.3073463268365817	100.53662771479112	31.549558987101772	
1.7375809017235657E12	-8.853658536585366	0.8313253012048193	-2.951807228915663	-0.93836026331538	-8.837821663674447	-3.0281268701376423	4136.263736263736	1686.4468864468863	-16.65648854961832	-22.396946564885496	-9.557251908396946	-0.24587706146926536	-0.2128935532233883	-0.3073463268365817	100.53662771479112	31.549558987101772	
1.73758090172854E12	-8.963414634146341	0.963855421686747	-3.0843373493975905	-1.0293237582286057	-8.933572710951525	-3.097546379413525	4134.798534798534	1676.923076923077	-14.381679389312977	-21.908396946564885	-9.84732824427481	-0.24287856071964017	-0.22938530734632684	-0.2983508245877061	100.53662771479112	31.549558987101772	
1.7375809017335144E12	-9.060975609756097	1.0120481927710845	-3.096385542168675	-1.16098144823459	-9.026929982046678	-3.097546379413525	4149.450549450549	1688.6446886446886	-11.31297709923664	-21.572519083969464	-9.511450381679388	-0.24287856071964017	-0.22938530734632684	-0.2983508245877061	100.52879300661019	31.549558987101772	
1.7375809017384888E12	-9.170731707317074	1.1325301204819278	-3.0843373493975905	-1.2663076002393776	-9.144225014961101	-3.032914422501496	4150.91575091575	1698.9010989010987	-8.99236641221374	-22.3206106870229	-8.259541984732824	-0.239880059970015	-0.23238380809595202	-0.3088455772113943	100.52879300661019	31.549558987101772	
1.7375809017434631E12	-9.317073170731708	1.2409638554216869	-3.024096385542169	-1.3524835427887492	-9.299820466786356	-2.9563135846798323	4140.65934065934	1689.3772893772893	-7.343511450381679	-22.076335877862594	-7.648854961832061	-0.24287856071964017	-0.22338830584707645	-0.3058470764617691	100.52879300661019	31.549558987101772	
1.7375809017484375E12	-9.439024390243903	1.3614457831325302	-2.987951807228916	-1.4482345900658289	-9.42429682824656	-2.9802513464991023	4145.054945054945	1691.5750915750914	-5.938931297709924	-22.106870229007633	-7.312977099236641	-0.24287856071964017	-0.22338830584707645	-0.3058470764617691	100.52879300661019	31.549558987101772	
1.7375809017534116E12	-9.536585365853659	1.4337349397590362	-2.987951807228916	-1.4697785757031716	-9.445840813883901	-2.98982645122681	4137.728937728937	1680.5860805860805	-4.259541984732825	-21.679389312977097	-7.312977099236641	-0.24887556221889054	-0.22938530734632684	-0.3058470764617691	100.52879300661019	31.549558987101772	
1.737580901758386E12	-9.52439024390244	1.3975903614457832	-2.951807228915663	-1.414721723518851	-9.409934171154998	-2.889287851585877	4142.124542124542	1687.179487179487	-1.83206106870229	-20.534351145038165	-7.114503816793893	-0.24887556221889054	-0.22938530734632684	-0.3058470764617691	100.52879300661019	31.549558987101772	
1.7375809017633604E12	-9.463414634146341	1.3012048192771084	-2.855421686746988	-1.3093955715140635	-9.302214242968283	-2.779174147217235	4143.589743589743	1685.7142857142856	0.7480916030534351	-19.358778625954198	-7.1603053435114505	-0.24737631184407796	-0.22788605697151423	-0.3073463268365817	100.53140457365622	31.549558987101772	
1.7375809017683347E12	-9.378048780487806	1.1686746987951808	-2.734939759036145	-1.156193895870736	-9.292639138240574	-2.7169359664871333	4137.728937728937	1677.6556776556774	2.4427480916030535	-17.419847328244273	-6.7328244274809155	-0.24737631184407796	-0.22788605697151423	-0.3073463268365817	100.53140457365622	31.549558987101772	
1.737580901773309E12	-9.304878048780488	1.0240963855421688	-2.674698795180723	-1.0029922202274086	-9.165769000598443	-2.6738479952124474	4131.868131868132	1665.9340659340658	3.5114503816793894	-15.572519083969466	-5.847328244274809	-0.2338830584707646	-0.2383808095952024	-0.3268365817091454	100.53140457365622	31.549558987101772	
1.7375809017782834E12	-9.207317073170731	0.8674698795180723	-2.63855421686747	-0.9120287253141831	-9.096349491322561	-2.606822262118492	4139.194139194139	1674.7252747252746	4.198473282442748	-13.679389312977099	-4.748091603053435	-0.2338830584707646	-0.2383808095952024	-0.3268365817091454	100.53140457365622	31.549558987101772	
1.7375809017832578E12	-9.170731707317074	0.7590361445783133	-2.5903614457831328	-0.8378216636744464	-9.046080191502094	-2.582884500299222	4149.450549450549	1687.9120879120878	4.244274809160305	-12.106870229007633	-3.9083969465648853	-0.2518740629685157	-0.22488755622188905	-0.3028485757121439	100.53140457365622	31.549558987101772	
1.7375809017882322E12	-9.121951219512196	0.6987951807228916	-2.5783132530120483	-0.7229204069419509	-9.01735487731897	-2.587672052663076	4150.91575091575	1698.9010989010987	4.213740458015267	-10.351145038167939	-3.4351145038167936	-0.2518740629685157	-0.22488755622188905	-0.3028485757121439	100.53140457365622	31.549558987101772	
1.7375809017932065E12	-9.085365853658537	0.5783132530120483	-2.566265060240964	-0.6295631358467983	-8.981448234590065	-2.558946738479952	4145.054945054945	1695.2380952380952	5.022900763358779	-8.305343511450381	-3.32824427480916	-0.24437781109445278	-0.22488755622188905	-0.3043478260869565	100.53140457365622	31.549558987101772	
1.737580901798181E12	-9.109756097560975	0.45783132530120485	-2.5301204819277108	-0.5026929982046678	-9.000598444045481	-2.5302214242968284	4137.728937728937	1682.051282051282	5.847328244274809	-6.564885496183206	-2.4122137404580153	-0.24437781109445278	-0.22488755622188905	-0.3043478260869565	100.53140457365622	31.549558987101772	
1.7375809018031553E12	-9.24390243902439	0.3493975903614458	-2.5060240963855422	-0.4428485936564931	-9.13704368641532	-2.503889886295631	4136.263736263736	1679.8534798534797	6.717557251908397	-5.083969465648854	-1.3893129770992365	-0.25337331334332835	-0.2338830584707646	-0.3058470764617691	100.53140457365622	31.549558987101772	
1.7375809018081296E12	-9.414634146341463	0.27710843373493976	-2.4096385542168677	-0.3231597845601436	-9.302214242968283	-2.4608019150209457	4146.520146520146	1688.6446886446886	7.312977099236641	-4.3206106870229	0.33587786259541985	-0.25337331334332835	-0.2338830584707646	-0.3058470764617691	100.52618144191179	31.549558987101772	
1.737580901813104E12	-9.512195121951219	0.21686746987951808	-2.313253012048193	-0.3375224416517056	-9.441053261520048	-2.3052064631956912	4143.589743589743	1686.4468864468863	8.51908396946565	-3.709923664122137	1.8778625954198473	-0.239880059970015	-0.239880059970015	-0.3043478260869565	100.52618144191179	31.549558987101772	
1.7375809018180784E12	-9.634146341463415	0.1927710843373494	-2.168674698795181	-0.26810293237582283	-9.52722920406942	-2.159186116098145	4147.985347985347	1696.7032967032967	10.244274809160306	-3.8931297709923665	3.9236641221374042	-0.239880059970015	-0.239880059970015	-0.3043478260869565	100.52618144191179	31.549558987101772	
1.7375809018230527E12	-9.731707317073171	0.16867469879518074	-2.072289156626506	-0.22980251346499103	-9.642130460801916	-2.0658288450029922	4150.91575091575	1702.5641025641025	11.236641221374045	-3.16030534351145	5.877862595419847	-0.25037481259370314	-0.22788605697151423	-0.3073463268365817	100.52879300661019	31.549558987101772	
1.737580901828027E12	-9.76829268292683	0.16867469879518074	-1.9879518072289157	-0.26092160383004187	-9.67085577498504	-1.9652902453620587	4142.124542124542	1695.970695970696	11.786259541984732	-2.778625954198473	7.969465648854961	-0.25037481259370314	-0.22788605697151423	-0.3073463268365817	100.52879300661019	31.549558987101772	
1.7375809018330015E12	-9.817073170731708	0.20481927710843376	-1.8674698795180724	-0.36624775583482944	-9.735487731897067	-1.8192698982645121	4143.589743589743	1689.3772893772893	12.259541984732824	-2.4122137404580153	9.786259541984732	-0.2563718140929535	-0.22638680659670163	-0.3058470764617691	100.52879300661019	31.549558987101772	
1.7375809018379758E12	-9.878048780487806	0.16867469879518074	-1.746987951807229	-0.3016157989228007	-9.807301017354877	-1.7474566128067026	4143.589743589743	1687.179487179487	12.229007633587786	-2.3053435114503817	12.091603053435113	-0.2563718140929535	-0.22638680659670163	-0.3058470764617691	100.52879300661019	31.549558987101772	
1.7375809018429502E12	-9.902439024390244	0.24096385542168675	-1.710843373493976	-0.3231597845601436	-9.771394374625972	-1.7019748653500897	4105.494505494506	1837.3626373626373	12.030534351145038	-1.7709923664122136	14.213740458015266	-0.2518740629685157	-0.22938530734632684	-0.32083958020989506	100.52879300661019	31.549558987101772	
1.7375809018479246E12	-9.865853658536587	0.30120481927710846	-1.6987951807228916	-0.3997606223818073	-9.713943746259725	-1.7139437462597247	4118.681318681319	1917.9487179487178	12.412213740458014	-1.8473282442748091	16.259541984732824	-0.2518740629685157	-0.22938530734632684	-0.32083958020989506	100.52879300661019	31.549558987101772	
1.737580901852899E12	-9.804878048780488	0.3614457831325301	-1.7349397590361446	-0.473967684021544	-9.704368641532017	-1.7450628366247756	4114.285714285714	1940.6593406593406	12.80916030534351	-2.4122137404580153	18.061068702290076	-0.2368815592203898	-0.22338830584707645	-0.3088455772113943	100.53140457365622	31.549558987101772	
1.7375809018578733E12	-9.74390243902439	0.45783132530120485	-1.7228915662650603	-0.5314183123877917	-9.67085577498504	-1.7067624177139438	4126.007326007326	1767.032967032967	13.389312977099236	-2.381679389312977	19.954198473282442	-0.2368815592203898	-0.22338830584707645	-0.3088455772113943	100.53140457365622	31.549558987101772	
1.7375809018628477E12	-9.731707317073171	0.5301204819277109	-1.6626506024096386	-0.6175942549371634	-9.61340514661879	-1.6636744464392579	4128.937728937729	1701.8315018315018	13.893129770992365	-2.7022900763358777	21.46564885496183	-0.25037481259370314	-0.2368815592203898	-0.3073463268365817	100.53140457365622	31.549558987101772	
1.737580901867822E12	-9.695121951219512	0.5903614457831325	-1.63855421686747	-0.6822262118491921	-9.55834829443447	-1.611011370436864	4121.611721611721	1863.003663003663	14.305343511450381	-2.2748091603053435	22.48854961832061	-0.25037481259370314	-0.2368815592203898	-0.3073463268365817	100.53140457365622	31.549558987101772	
1.7375809018727964E12	-9.634146341463415	0.674698795180723	-1.566265060240964	-0.7612208258527827	-9.498503889886296	-1.5224416517055654	4124.542124542124	1934.7985347985348	14.65648854961832	-1.129770992366412	23.49618320610687	-0.24887556221889054	-0.22638680659670163	-0.29985007496251875	100.53140457365622	31.549558987101772	
1.7375809018777708E12	-9.573170731707318	0.746987951807229	-1.530120481927711	-0.8090963494913226	-9.450628366247756	-1.5104727707959305	4126.007326007326	1764.8351648351647	15.17557251908397	-0.8702290076335878	24.35114503816794	-0.24887556221889054	-0.22638680659670163	-0.29985007496251875	100.53140457365622	31.549558987101772	
1.737580901882745E12	-9.512195121951219	0.7710843373493976	-1.5180722891566265	-0.7995212447636146	-9.41472172351885	-1.4985038898862957	4136.263736263736	1714.2857142857142	15.526717557251908	0.0916030534351145	24.62595419847328	-0.25337331334332835	-0.22638680659670163	-0.29385307346326833	100.52879300661019	31.549558987101772	
1.7375809018877195E12	-9.451219512195122	0.783132530120482	-1.493975903614458	-0.8378216636744464	-9.342908438061041	-1.4913225613405146	4130.40293040293	1685.7142857142856	15.282442748091603	0.9923664122137404	24.763358778625953	-0.25337331334332835	-0.22638680659670163	-0.29385307346326833	100.52879300661019	31.549558987101772	
1.7375809018926938E12	-9.341463414634147	0.8072289156626506	-1.5060240963855422	-0.8545780969479353	-9.290245362058647	-1.4745661280670257	4142.124542124542	1689.3772893772893	15.14503816793893	1.6030534351145038	24.702290076335878	-0.25037481259370314	-0.23238380809595202	-0.3028485757121439	100.52879300661019	31.549558987101772	
1.7375809018976682E12	-9.317073170731708	0.783132530120482	-1.493975903614458	-0.8258527827648114	-9.22561340514662	-1.5152603231597845	4136.263736263736	1682.7838827838827	15.374045801526718	2.1068702290076335	24.82442748091603	-0.25037481259370314	-0.23238380809595202	-0.3028485757121439	100.52356987956102	31.549558987101772	
1.7375809019026426E12	-9.28048780487805	0.746987951807229	-1.5180722891566265	-0.7684021543985637	-9.163375224416518	-1.5583482944344704	4137.728937728937	1676.923076923077	15.32824427480916	2.2748091603053435	25.43511450381679	-0.25037481259370314	-0.21739130434782608	-0.29985007496251875	100.52356987956102	31.549558987101772	
1.737580901907617E12	-9.207317073170731	0.6144578313253012	-1.530120481927711	-0.5314183123877917	-9.127468581687612	-1.5583482944344704	4149.450549450549	1689.3772893772893	15.557251908396946	2.854961832061069	23.267175572519083	-0.25037481259370314	-0.21739130434782608	-0.29985007496251875	100.52356987956102	31.549558987101772	
1.7375809019125913E12	-9.158536585365853	0.5783132530120483	-1.5542168674698795	-0.6247755834829444	-9.062836624775583	-1.5918611609814481	4126.007326007326	1663.7362637362637	15.603053435114504	2.854961832061069	22.595419847328245	-0.2623688155922039	-0.23238380809595202	-0.32083958020989506	100.52618144191179	31.549558987101772	
1.7375809019175657E12	-9.097560975609756	0.4819277108433735	-1.5903614457831325	-0.4236983842010772	-9.002992220227409	-1.6157989228007181	4104.029304029304	1828.5714285714284	14.687022900763358	2.045801526717557	19.587786259541986	-0.2623688155922039	-0.23238380809595202	-0.32083958020989506	100.52618144191179	31.549558987101772	
1.73758090192254E12	-9.085365853658537	0.5421686746987953	-1.602409638554217	-0.6511071214841412	-8.976660682226212	-1.5583482944344704	4105.494505494506	1895.970695970696	14.320610687022901	1.2213740458015268	19.786259541984734	-0.24737631184407796	-0.21889055472263869	-0.3028485757121439	100.52618144191179	31.549558987101772	
1.7375809019275144E12	-9.048780487804878	0.6867469879518072	-1.5060240963855422	-0.7109515260323159	-8.940754039497307	-1.4817474566128066	4153.846153846153	1791.2087912087911	13.526717557251908	0.9770992366412213	20.80916030534351	-0.24737631184407796	-0.21889055472263869	-0.3028485757121439	100.52879300661019	31.549558987101772	
1.7375809019324888E12	-9.048780487804878	0.674698795180723	-1.4096385542168675	-0.718132854578097	-8.928785158587672	-1.419509275882705	4143.589743589743	1728.937728937729	12.183206106870228	0.8854961832061068	20.427480916030532	-0.24887556221889054	-0.2368815592203898	-0.3043478260869565	100.52879300661019	31.549558987101772	
1.7375809019374631E12	-9.048780487804878	0.7228915662650602	-1.3373493975903614	-0.8186714542190305	-8.955116696588869	-1.3548773189706762	4145.054945054945	1708.4249084249084	10.534351145038167	1.4045801526717556	20.885496183206104	-0.24887556221889054	-0.2368815592203898	-0.3043478260869565	100.52879300661019	31.549558987101772	
1.7375809019424375E12	-9.073170731707318	0.7951807228915663	-1.3253012048192772	-0.9120287253141831	-8.950329144225014	-1.3429084380610412	4156.776556776556	1715.018315018315	8.595419847328245	1.3893129770992365	21.00763358778626	-0.2518740629685157	-0.2338830584707646	-0.29985007496251875	100.52879300661019	31.549558987101772	
1.7375809019474119E12	-9.060975609756097	0.8795180722891567	-1.313253012048193	-1.0053859964093357	-8.940754039497307	-1.3117893476959903	4142.124542124542	1701.098901098901	7.587786259541985	2.351145038167939	22.15267175572519	-0.2518740629685157	-0.2338830584707646	-0.29985007496251875	100.52879300661019	31.549558987101772	
1.737580901952386E12	-9.048780487804878	0.783132530120482	-1.349397590361446	-0.6295631358467983	-8.964691801316576	-1.3572710951526032	4145.054945054945	1696.7032967032967	6.793893129770992	3.236641221374046	18.641221374045802	-0.2563718140929535	-0.22938530734632684	-0.3043478260869565	100.52879300661019	31.549558987101772	
1.7375809019573604E12	-9.060975609756097	0.8072289156626506	-1.3253012048192772	-0.9120287253141831	-8.979054458408138	-1.3572710951526032	4143.589743589743	1689.3772893772893	5.694656488549618	3.7862595419847325	19.419847328244273	-0.2563718140929535	-0.22938530734632684	-0.3043478260869565	100.52879300661019	31.549558987101772	
1.7375809019623347E12	-9.073170731707318	0.9036144578313253	-1.313253012048193	-0.9838420107719928	-8.971873129862358	-1.3357271095152603	4150.91575091575	1699.6336996336995	5.312977099236641	4.351145038167939	20.106870229007633	-0.2578710644677661	-0.2338830584707646	-0.3043478260869565	100.52879300661019	31.549558987101772	
1.737580901967309E12	-9.060975609756097	0.8915662650602411	-1.349397590361446	-0.8761220825852782	-8.957510472770796	-1.3668461998803112	4146.520146520146	1697.4358974358972	5.022900763358779	5.816793893129771	19.068702290076335	-0.2578710644677661	-0.2338830584707646	-0.3043478260869565	100.52879300661019	31.549558987101772	
1.7375809019722834E12	-9.036585365853659	0.9397590361445783	-1.313253012048193	-1.0053859964093357	-8.928785158587672	-1.3093955715140635	4145.054945054945	1695.2380952380952	4.885496183206107	6.442748091603053	18.47328244274809	-0.25037481259370314	-0.22488755622188905	-0.2983508245877061	100.52618144191179	31.549558987101772	
1.7375809019772578E12	-9.012195121951219	1.0602409638554218	-1.2891566265060241	-1.2160383004189108	-8.888090963494912	-1.2615200478755235	4143.589743589743	1689.3772893772893	4.045801526717557	7.572519083969465	19.389312977099237	-0.25037481259370314	-0.22488755622188905	-0.2983508245877061	100.52618144191179	31.549558987101772	
1.7375809019822322E12	-8.987804878048781	1.180722891566265	-1.2530120481927711	-1.2806702573309394	-8.880909634949132	-1.2112507480550567	4142.124542124542	1690.8424908424906	2.564885496183206	7.816793893129771	20.213740458015266	-0.2608695652173913	-0.22938530734632684	-0.31634182908545727	100.52618144191179	31.549558987101772	
1.7375809019872065E12	-8.987804878048781	1.1686746987951808	-1.2650602409638554	-1.2327947336923997	-8.871334530221423	-1.2615200478755235	4105.494505494506	1839.5604395604394	2.6717557251908395	9.34351145038168	19.51145038167939	-0.2608695652173913	-0.22938530734632684	-0.31634182908545727	100.52618144191179	31.549558987101772	
1.737580901992181E12	-8.963414634146341	1.2289156626506024	-1.2409638554216869	-1.3285457809694794	-8.864153201675643	-1.2399760622381808	4124.542124542124	1924.5421245421244	2.2748091603053435	10.091603053435113	18.82442748091603	-0.25037481259370314	-0.23088455772113942	-0.3088455772113943	100.52618144191179	31.549558987101772	
1.7375809019971553E12	-8.987804878048781	1.3012048192771084	-1.2289156626506024	-1.3213644524236983	-8.885697187312987	-1.199281867145422	4127.472527472527	1765.5677655677655	1.8473282442748091	10.687022900763358	18.045801526717558	-0.25037481259370314	-0.23088455772113942	-0.3088455772113943	100.52618144191179	31.549558987101772	
1.7375809020021296E12	-9.0	1.3253012048192772	-1.1927710843373494	-1.4482345900658289	-8.916816277678038	-1.196888090963495	4126.007326007326	1695.2380952380952	1.1755725190839694	11.954198473282442	17.587786259541986	-0.24137931034482757	-0.239880059970015	-0.29985007496251875	100.52618144191179	31.549558987101772	
1.737580902007104E12	-9.012195121951219	1.530120481927711	-1.2048192771084338	-1.7546379413524835	-8.91442250149611	-1.151406343506882	4126.007326007326	1665.9340659340658	2.1068702290076335	13.96946564885496	20.106870229007633	-0.24137931034482757	-0.239880059970015	-0.29985007496251875	100.52618144191179	31.549558987101772	
1.7375809020120784E12	-9.02439024390244	1.674698795180723	-1.1566265060240966	-1.5631358467983243	-8.93836026331538	-1.1035308198683422	4134.798534798534	1668.8644688644688	4.091603053435114	15.572519083969466	24.30534351145038	-0.2383808095952024	-0.2353823088455772	-0.3043478260869565	100.52618144191179	31.549558987101772	
1.7375809020170527E12	-9.036585365853659	1.5542168674698795	-1.108433734939759	-1.426690604428486	-8.988629563135847	-1.1298623578695393	4133.333333333333	1668.131868131868	4.7328244274809155	16.0	21.14503816793893	-0.2383808095952024	-0.2353823088455772	-0.3043478260869565	100.53140457365622	31.549558987101772	
1.737580902022027E12	-9.109756097560975	1.4819277108433735	-1.144578313253012	-1.4745661280670257	-8.988629563135847	-1.1370436864153202	4133.333333333333	1668.131868131868	5.587786259541985	17.61832061068702	19.877862595419845	-0.239880059970015	-0.22938530734632684	-0.3058470764617691	100.53140457365622	31.549558987101772	
1.7375809020270015E12	-9.073170731707318	1.493975903614458	-1.1325301204819278	-1.5463794135248354	-8.955116696588869	-1.1250748055056852	4136.263736263736	1673.9926739926739	6.366412213740458	17.770992366412212	18.885496183206108	-0.239880059970015	-0.22938530734632684	-0.3058470764617691	100.53140457365622	31.549558987101772	
1.7375809020319758E12	-9.012195121951219	1.5060240963855422	-1.0120481927710845	-1.5415918611609813	-8.880909634949132	-1.0101735487731898	4139.194139194139	1678.3882783882782	6.977099236641221	17.404580152671755	17.862595419847327	-0.24137931034482757	-0.2353823088455772	-0.3028485757121439	100.52618144191179	31.549558987101772	
1.7375809020369502E12	-8.914634146341463	0.16867469879518074	-1.0602409638554218	1.3285457809694794	-8.957510472770796	-1.2184320766008379	4130.40293040293	1670.3296703296703	3.5114503816793894	16.381679389312975	-18.50381679389313	-0.24137931034482757	-0.2353823088455772	-0.3028485757121439	100.52618144191179	31.549558987101772	
1.7375809020419246E12	-9.097560975609756	1.1325301204819278	-0.8795180722891567	-1.7211250748055056	-8.93836026331538	-0.8378216636744464	4130.40293040293	1667.3992673992673	2.6564885496183206	21.236641221374043	8.213740458015266	-0.2563718140929535	-0.22788605697151423	-0.3058470764617691	100.52618144191179	31.549558987101772	
1.737580902046899E12	-9.060975609756097	1.7710843373493976	-0.8795180722891567	-2.0059844404548173	-9.005385996409336	-0.8067025733093955	4134.798534798534	1668.8644688644688	7.129770992366412	23.46564885496183	13.587786259541984	-0.2563718140929535	-0.22788605697151423	-0.3058470764617691	100.52356987956102	31.549558987101772	
1.7375809020518733E12	-8.963414634146341	1.4096385542168675	-0.8072289156626506	-1.414721723518851	-8.854578096947936	-0.8234590065828845	4121.611721611721	1848.3516483516482	8.778625954198473	25.053435114503817	11.389312977099236	-0.24587706146926536	-0.21739130434782608	-0.3088455772113943	100.52356987956102	31.549558987101772	
1.7375809020568477E12	-9.02439024390244	1.0963855421686748	-0.6626506024096386	-1.1035308198683422	-8.909634949132256	-0.6702573309395571	4128.937728937729	1734.7985347985348	6.65648854961832	22.763358778625953	9.557251908396946	-0.24587706146926536	-0.21739130434782608	-0.3088455772113943	100.52356987956102	31.549558987101772	
1.737580902061822E12	-9.170731707317074	1.180722891566265	-0.6987951807228916	-1.2782764811490126	-9.050867743865949	-0.6630760023937762	4136.263736263736	1701.8315018315018	6.091603053435114	21.84732824427481	12.442748091603052	-0.24887556221889054	-0.22638680659670163	-0.3058470764617691	100.52618144191179	31.549558987101772	
1.7375809020667964E12	-9.207317073170731	1.457831325301205	-0.6987951807228916	-1.5966487133453022	-9.108318372232196	-0.6750448833034112	4139.194139194139	1689.3772893772893	7.465648854961832	22.0	17.49618320610687	-0.24887556221889054	-0.22638680659670163	-0.3058470764617691	100.52618144191179	31.549558987101772	
1.7375809020717708E12	-9.109756097560975	1.4096385542168675	-0.6506024096385542	-1.4745661280670257	-8.983842010771992	-0.6343506882106523	4142.124542124542	1690.10989010989	9.389312977099236	22.15267175572519	12.244274809160306	-0.2623688155922039	-0.23238380809595202	-0.3043478260869565	100.52618144191179	31.549558987101772	
1.737580902076745E12	-9.195121951219512	1.0120481927710845	-0.5662650602409639	-0.9048473967684021	-9.103530819868341	-0.5481747456612807	4134.798534798534	1678.3882783882782	9.908396946564885	25.81679389312977	11.770992366412214	-0.2623688155922039	-0.23238380809595202	-0.3043478260869565	100.52879300661019	31.549558987101772	
1.7375809020817195E12	-9.207317073170731	0.9879518072289157	-0.5180722891566265	-1.0269299820466786	-9.093955715140634	-0.5218432076600837	4153.846153846153	1701.098901098901	9.84732824427481	26.13740458015267	10.65648854961832	-0.25487256371814093	-0.2143928035982009	-0.3073463268365817	100.52879300661019	31.549558987101772	
1.7375809020866938E12	-9.195121951219512	1.0240963855421688	-0.5301204819277109	-1.0293237582286057	-9.115499700777978	-0.5002992220227409	4147.985347985347	1702.5641025641025	10.427480916030534	28.106870229007633	9.450381679389313	-0.2563718140929535	-0.23088455772113942	-0.2983508245877061	100.52879300661019	31.549558987101772	
1.7375809020916682E12	-9.195121951219512	1.036144578313253	-0.5180722891566265	-1.0652304009575104	-9.115499700777978	-0.457211250748055	4128.937728937729	1675.4578754578754	11.022900763358779	30.244274809160306	8.305343511450381	-0.2563718140929535	-0.23088455772113942	-0.2983508245877061	100.52879300661019	31.549558987101772	
1.7375809020966426E12	-9.195121951219512	1.0602409638554218	-0.45783132530120485	-1.0628366247755834	-9.086774386594854	-0.46918013165769	4111.355311355311	1840.2930402930401	11.404580152671755	31.679389312977097	7.770992366412213	-0.2563718140929535	-0.22338830584707645	-0.3088455772113943	100.52879300661019	31.549558987101772	
1.737580902101617E12	-9.207317073170731	1.0843373493975905	-0.45783132530120485	-1.0939557151406343	-9.103530819868341	-0.4069419509275883	4117.216117216117	1913.5531135531135	11.236641221374045	33.20610687022901	6.519083969465648	-0.2563718140929535	-0.22338830584707645	-0.3088455772113943	100.52879300661019	31.549558987101772	
1.7375809021065913E12	-9.219512195121952	1.1204819277108435	-0.44578313253012053	-1.153800119688809	-9.127468581687612	-0.45242369838420105	4128.937728937729	1762.6373626373625	11.603053435114504	34.717557251908396	5.770992366412213	-0.2563718140929535	-0.22638680659670163	-0.31334332833583206	100.52879300661019	31.549558987101772	
1.7375809021115657E12	-9.170731707317074	1.1927710843373494	-0.42168674698795183	-1.2016756433273488	-9.093955715140634	-0.3901855176540993	4124.542124542124	1893.040293040293	11.389312977099236	35.81679389312977	5.068702290076335	-0.2563718140929535	-0.22638680659670163	-0.31334332833583206	100.52879300661019	31.549558987101772	
1.73758090211654E12	-9.182926829268293	1.2048192771084338	-0.3734939759036145	-1.170556552962298	-9.098743267504489	-0.38539796529024534	4139.194139194139	1767.7655677655675	10.80916030534351	37.862595419847324	3.7709923664122136	-0.2518740629685157	-0.22488755622188905	-0.3028485757121439	100.52879300661019	31.549558987101772	
1.7375809021215144E12	-9.170731707317074	1.2409638554216869	-0.44578313253012053	-1.2304009575104728	-9.070017953321365	-0.45481747456612803	4131.868131868132	1704.0293040293038	12.229007633587786	38.97709923664122	2.8702290076335877	-0.2518740629685157	-0.22488755622188905	-0.3028485757121439	100.52356987956102	31.549558987101772	
1.7375809021264888E12	-9.109756097560975	1.2650602409638554	-0.44578313253012053	-1.2950329144225015	-9.036505086774387	-0.42848593656493117	4124.542124542124	1868.8644688644688	12.793893129770991	39.786259541984734	1.8473282442748091	-0.24437781109445278	-0.23238380809595202	-0.3103448275862069	100.52356987956102	31.549558987101772	
1.7375809021314631E12	-9.085365853658537	1.313253012048193	-0.3493975903614458	-1.2950329144225015	-8.983842010771992	-0.2992220227408737	4142.124542124542	1764.102564102564	12.458015267175572	39.83206106870229	0.6870229007633587	-0.24437781109445278	-0.23238380809595202	-0.3103448275862069	100.52356987956102	31.549558987101772	
1.7375809021364375E12	-9.073170731707318	1.2530120481927711	-0.3614457831325301	-1.2327947336923997	-8.955116696588869	-0.3255535607420706	4136.263736263736	1713.5531135531135	13.32824427480916	42.29007633587786	-0.030534351145038167	-0.25337331334332835	-0.22488755622188905	-0.31634182908545727	100.51834676190238	31.549558987101772	
1.7375809021414119E12	-9.0	1.2530120481927711	-0.3493975903614458	-1.2495511669658887	-8.92160383004189	-0.3087971274685817	4137.728937728937	1689.3772893772893	14.0	42.6412213740458	-0.732824427480916	-0.25337331334332835	-0.22488755622188905	-0.31634182908545727	100.51834676190238	31.549558987101772	
1.7375809021463862E12	-8.987804878048781	1.2289156626506024	-0.3132530120481928	-1.2567324955116697	-8.897666068222621	-0.2752842609216038	4150.91575091575	1699.6336996336995	13.893129770992365	43.32824427480916	-1.1603053435114503	-0.25337331334332835	-0.22788605697151423	-0.3043478260869565	100.51834676190238	31.549558987101772	
1.7375809021513604E12	-8.951219512195122	1.2289156626506024	-0.18072289156626506	-1.199281867145422	-8.871334530221423	-0.1603830041891083	4155.311355311355	1705.4945054945053	12.366412213740457	42.717557251908396	-1.5725190839694656	-0.25337331334332835	-0.22788605697151423	-0.3043478260869565	100.52618144191179	31.549558987101772	
1.7375809021563347E12	-8.926829268292684	1.1325301204819278	-0.2530120481927711	-1.199281867145422	-8.83542788749252	-0.24177139437462597	4133.333333333333	1684.249084249084	13.022900763358779	43.70992366412214	-1.465648854961832	-0.25037481259370314	-0.22188905547226387	-0.3088455772113943	100.52618144191179	31.549558987101772	
1.737580902161309E12	-8.926829268292684	1.1566265060240966	-0.22891566265060243	-1.180131657690006	-8.811490125673249	-0.234590065828845	4145.054945054945	1690.10989010989	13.404580152671755	42.99236641221374	-1.3282442748091603	-0.25037481259370314	-0.22188905547226387	-0.3088455772113943	100.52618144191179	31.549558987101772	
1.7375809021662834E12	-8.926829268292684	1.1204819277108435	-0.21686746987951808	-1.1202872531418313	-8.830640335128665	-0.21543985637342908	4137.728937728937	1679.8534798534797	13.251908396946565	42.732824427480914	-1.129770992366412	-0.25337331334332835	-0.23088455772113942	-0.30134932533733133	100.52356987956102	31.549558987101772	
1.7375809021712578E12	-8.963414634146341	1.0843373493975905	-0.24096385542168675	-1.153800119688809	-8.849790544584081	-0.26570915619389585	4145.054945054945	1687.9120879120878	12.839694656488549	41.77099236641221	-1.3893129770992365	-0.25337331334332835	-0.23088455772113942	-0.30134932533733133	100.52356987956102	31.549558987101772	
1.7375809021762322E12	-8.914634146341463	1.216867469879518	-0.3253012048192771	-1.3046080191502094	-8.83542788749252	-0.3494913225613405	4139.194139194139	1684.249084249084	13.17557251908397	39.358778625954194	-3.145038167938931	-0.24587706146926536	-0.2383808095952024	-0.30134932533733133	100.52356987956102	31.549558987101772	
1.7375809021812065E12	-9.012195121951219	0.9036144578313253	-0.26506024096385544	-0.7492519449431478	-9.002992220227409	-0.2537402752842609	4146.520146520146	1690.8424908424906	12.366412213740457	40.50381679389313	-2.4580152671755724	-0.24587706146926536	-0.2383808095952024	-0.30134932533733133	100.52879300661019	31.549558987101772	
1.737580902186181E12	-9.0	0.8674698795180723	-0.3132530120481928	-0.9622980251346499	-8.904847396768401	-0.2800718132854578	4143.589743589743	1687.179487179487	13.694656488549617	38.717557251908396	-1.4961832061068703	-0.2383808095952024	-0.22788605697151423	-0.3043478260869565	100.52879300661019	31.549558987101772	
1.7375809021911553E12	-9.0	0.8915662650602411	-0.28915662650602414	-0.935966487133453	-8.880909634949132	-0.24177139437462597	4127.472527472527	1668.131868131868	14.702290076335878	38.58015267175573	-1.9236641221374045	-0.2383808095952024	-0.22788605697151423	-0.3043478260869565	100.52879300661019	31.549558987101772	
1.7375809021961296E12	-9.048780487804878	0.8433734939759037	-0.21686746987951808	-0.8521843207660084	-8.935966487133452	-0.15320167564332735	4136.263736263736	1673.9926739926739	15.022900763358779	38.167938931297705	-2.0	-0.24587706146926536	-0.22788605697151423	-0.3058470764617691	100.52879300661019	31.549558987101772	
1.737580902201104E12	-9.060975609756097	0.7710843373493976	-0.1566265060240964	-0.8162776780371035	-8.964691801316576	-0.15320167564332735	4139.194139194139	1678.3882783882782	14.763358778625953	37.26717557251908	-1.8625954198473282	-0.24587706146926536	-0.22788605697151423	-0.3058470764617691	100.52879300661019	31.549558987101772	
1.7375809022060784E12	-9.097560975609756	0.6867469879518072	-0.12048192771084337	-0.698982645122681	-9.000598444045481	-0.06941950927588271	4109.89010989011	1840.2930402930401	14.244274809160304	36.534351145038165	-1.5877862595419847	-0.2518740629685157	-0.22788605697151423	-0.31634182908545727	100.52879300661019	31.549558987101772	
1.7375809022110527E12	-9.085365853658537	0.6024096385542169	-0.060240963855421686	-0.6271693596648713	-8.971873129862358	-0.06223818073010173	4137.728937728937	1740.6593406593406	13.893129770992365	35.64885496183206	-1.3587786259541985	-0.2518740629685157	-0.22788605697151423	-0.31634182908545727	100.52095831955789	31.549558987101772	
1.737580902216027E12	-9.060975609756097	0.5542168674698795	-0.024096385542168676	-0.5385996409335727	-8.96947935368043	-0.009575104727707959	4153.846153846153	1726.7399267399267	13.053435114503817	34.595419847328245	-0.9923664122137404	-0.2578710644677661	-0.2338830584707646	-0.31334332833583206	100.52095831955789	31.549558987101772	
1.7375809022210015E12	-9.012195121951219	0.6506024096385542	-0.03614457831325302	-0.8641532016756434	-8.88330341113106	-0.05505685218432076	4153.846153846153	1720.8791208791208	12.67175572519084	32.0763358778626	-2.6564885496183206	-0.2578710644677661	-0.2338830584707646	-0.31334332833583206	100.52095831955789	31.549558987101772	
1.7375809022259758E12	-9.085365853658537	0.45783132530120485	0.07228915662650603	-0.26092160383004187	-9.079593058049072	0.07660083782166367	4139.194139194139	1697.4358974358972	10.412213740458014	31.526717557251906	-2.717557251908397	-0.25037481259370314	-0.22188905547226387	-0.2983508245877061	100.52618144191179	31.549558987101772	
1.7375809022309502E12	-9.182926829268293	0.28915662650602414	0.0963855421686747	-0.41651705565529623	-9.050867743865949	0.05745062836624776	4143.589743589743	1690.10989010989	9.419847328244275	31.98473282442748	-0.8396946564885496	-0.25037481259370314	-0.22188905547226387	-0.2983508245877061	100.52618144191179	31.549558987101772	
1.7375809022359246E12	-9.146341463414634	0.42168674698795183	0.0963855421686747	-0.4955116696588869	-9.08916816277678	0.08856971873129862	4137.728937728937	1679.8534798534797	8.67175572519084	31.190839694656486	-1.5267175572519083	-0.2368815592203898	-0.21889055472263869	-0.29985007496251875	100.52618144191179	31.549558987101772	
1.737580902240899E12	-9.219512195121952	0.44578313253012053	0.10843373493975904	-0.47875523638539796	-9.172950329144225	0.12687013764213045	4118.681318681319	1852.7472527472526	7.938931297709924	30.82442748091603	-1.3282442748091603	-0.2368815592203898	-0.21889055472263869	-0.29985007496251875	100.52356987956102	31.549558987101772	
1.7375809022458733E12	-9.28048780487805	0.46987951807228917	0.13253012048192772	-0.5146618791143028	-9.2327947336924	0.13405146618791142	4136.263736263736	1749.4505494505493	7.175572519083969	29.81679389312977	-1.465648854961832	-0.2368815592203898	-0.21889055472263869	-0.3073463268365817	100.52356987956102	31.549558987101772	
1.7375809022508477E12	-9.341463414634147	0.5180722891566265	0.1566265060240964	-0.5816876122082585	-9.275882704967085	0.19868342309994014	4126.007326007326	1688.6446886446886	6.65648854961832	29.61832061068702	-1.618320610687023	-0.2368815592203898	-0.21889055472263869	-0.3073463268365817	100.52356987956102	31.549558987101772	
1.737580902255822E12	-9.378048780487806	0.5903614457831325	0.21686746987951808	-0.6295631358467983	-9.302214242968283	0.26570915619389585	4145.054945054945	1693.7728937728937	6.229007633587786	29.34351145038168	-1.6793893129770991	-0.24137931034482757	-0.22938530734632684	-0.3103448275862069	100.52356987956102	31.549558987101772	
1.7375809022607964E12	-9.390243902439025	0.6506024096385542	0.30120481927710846	-0.7109515260323159	-9.326152004787552	0.3207660083782166	4112.820512820513	1852.0146520146518	5.557251908396946	29.450381679389313	-1.5877862595419847	-0.24137931034482757	-0.22938530734632684	-0.3103448275862069	100.52356987956102	31.549558987101772	
1.7375809022657708E12	-9.439024390243903	0.6987951807228916	0.39759036144578314	-0.7205266307600239	-9.362058647516458	0.43327348892878514	4133.333333333333	1743.5897435897434	5.083969465648854	29.725190839694655	-1.8931297709923662	-0.21889055472263869	-0.22938530734632684	-0.3118440779610195	100.52356987956102	31.549558987101772	
1.737580902270745E12	-9.487804878048781	0.783132530120482	0.42168674698795183	-0.8114901256732495	-9.388390185517654	0.473967684021544	4130.40293040293	1697.4358974358972	5.221374045801526	30.335877862595417	-2.16793893129771	-0.21889055472263869	-0.22938530734632684	-0.3118440779610195	100.52618144191179	31.549558987101772	
1.7375809022757195E12	-9.536585365853659	0.8674698795180723	0.5301204819277109	-0.9072411729503291	-9.448234590065828	0.5577498503889886	4143.589743589743	1690.10989010989	4.977099236641221	30.412213740458014	-2.396946564885496	-0.2368815592203898	-0.22788605697151423	-0.3028485757121439	100.52618144191179	31.549558987101772	
1.7375809022806938E12	-9.609756097560975	0.9518072289156627	0.6385542168674699	-0.9742669060442848	-9.512866546977857	0.6558946738479952	4133.333333333333	1676.923076923077	4.916030534351145	30.839694656488547	-2.7938931297709924	-0.2368815592203898	-0.22788605697151423	-0.3028485757121439	100.52618144191179	31.549558987101772	
1.7375809022856682E12	-9.707317073170731	1.0120481927710845	0.7710843373493976	-1.0125673249551166	-9.608617594254937	0.7851585876720526	4142.124542124542	1684.9816849816848	4.748091603053435	31.114503816793892	-2.8091603053435112	-0.24287856071964017	-0.23088455772113942	-0.31334332833583206	100.52095831955789	31.549558987101772	
1.7375809022906426E12	-9.78048780487805	1.0843373493975905	0.8795180722891567	-1.0915619389587072	-9.704368641532017	0.926391382405745	4131.868131868132	1669.5970695970695	5.022900763358779	30.839694656488547	-2.8854961832061066	-0.24287856071964017	-0.23088455772113942	-0.31334332833583206	100.52095831955789	31.549558987101772	
1.737580902295617E12	-9.865853658536587	1.2289156626506024	0.8795180722891567	-1.3596648713345303	-9.72591262716936	0.8665469778575703	4146.520146520146	1684.9816849816848	7.267175572519084	30.030534351145036	-5.343511450381679	-0.2368815592203898	-0.22788605697151423	-0.3073463268365817	100.52095831955789	31.549558987101772	
1.7375809023005913E12	-10.048780487804878	1.0	1.0843373493975905	-0.933572710951526	-9.970077797725912	1.1274685816876122	4145.054945054945	1690.10989010989	6.0	30.412213740458014	-2.4427480916030535	-0.2368815592203898	-0.22788605697151423	-0.3073463268365817	100.52095831955789	31.549558987101772	
1.7375809023055657E12	-10.109756097560975	1.180722891566265	1.1927710843373494	-1.2423698384201076	-10.00359066427289	1.180131657690006	4149.450549450549	1693.7728937728937	4.824427480916031	30.259541984732824	-3.0229007633587783	-0.2353823088455772	-0.22338830584707645	-0.29985007496251875	100.52095831955789	31.549558987101772	
1.73758090231054E12	-10.085365853658537	-0.13253012048192772	1.0602409638554218	1.6062238180730102	-10.123279473369239	0.926391382405745	4143.589743589743	1688.6446886446886	1.3435114503816794	34.534351145038165	-34.87022900763359	-0.2353823088455772	-0.22338830584707645	-0.29985007496251875	100.52095831955789	31.549558987101772	
1.7375809023155144E12	-10.28048780487805	1.3253012048192772	1.1566265060240966	-2.2381807301017353	-10.125673249551166	1.20885697187313	4155.311355311355	1701.098901098901	2.748091603053435	30.213740458015266	-8.839694656488549	-0.2338830584707646	-0.23088455772113942	-0.3073463268365817	100.52095831955789	31.549558987101772	
1.7375809023204888E12	-10.390243902439025	2.072289156626506	1.2048192771084338	-2.4536205864751643	-10.333931777378815	1.395571514063435	4146.520146520146	1697.4358974358972	10.442748091603052	31.908396946564885	4.091603053435114	-0.2338830584707646	-0.23088455772113942	-0.3073463268365817	100.52095831955789	31.549558987101772	
1.7375809023254631E12	-10.182926829268293	1.6144578313253013	1.3253012048192772	-1.4602034709754637	-10.029922202274086	1.374027528426092	4133.333333333333	1680.5860805860805	11.770992366412214	31.587786259541982	0.21374045801526717	-0.25037481259370314	-0.239880059970015	-0.3058470764617691	100.52095831955789	31.549558987101772	
1.7375809023304375E12	-10.085365853658537	1.4337349397590362	1.5180722891566265	-1.409934171154997	-9.941352483542788	1.611011370436864	4111.355311355311	1841.7582417582416	12.732824427480915	28.580152671755723	0.6259541984732824	-0.25037481259370314	-0.239880059970015	-0.3058470764617691	100.52095831955789	31.549558987101772	
1.7375809023354119E12	-10.02439024390244	1.4457831325301205	1.6506024096385543	-1.4793536804308798	-9.919808497905446	1.7402752842609215	4111.355311355311	1907.6923076923076	13.648854961832061	27.251908396946565	1.4961832061068703	-0.22038980509745126	-0.25037481259370314	-0.3148425787106447	100.52095831955789	31.549558987101772	
1.7375809023403862E12	-10.170731707317074	1.7590361445783134	1.4337349397590362	-1.9509275882704966	-10.075403949730699	1.419509275882705	4127.472527472527	1758.974358974359	15.694656488549617	26.65648854961832	-0.6717557251908397	-0.22038980509745126	-0.25037481259370314	-0.3148425787106447	100.52095831955789	31.549558987101772	
1.7375809023453606E12	-10.646341463414634	1.3975903614457832	1.3253012048192772	-1.2687013764213046	-10.630760023937762	1.2806702573309394	4121.611721611721	1886.4468864468863	13.17557251908397	33.664122137404576	1.3129770992366412	-0.2383808095952024	-0.22638680659670163	-0.3088455772113943	100.52356987956102	31.549558987101772	
1.7375809023503347E12	-11.02439024390244	1.421686746987952	1.1927710843373494	-1.4697785757031716	-10.997007779772591	1.158587672052663	4124.542124542124	1944.3223443223442	10.977099236641221	32.47328244274809	3.2213740458015265	-0.2383808095952024	-0.22638680659670163	-0.3088455772113943	100.52356987956102	31.549558987101772	
1.737580902355309E12	-11.390243902439025	0.8915662650602411	0.783132530120482	-0.6511071214841412	-11.394374625972471	0.7253141831238779	4124.542124542124	1969.230769230769	10.732824427480915	33.95419847328244	-2.091603053435114	-0.22488755622188905	-0.23088455772113942	-0.3118440779610195	100.52356987956102	31.549558987101772	
1.7375809023602834E12	-11.914634146341465	0.6265060240963856	0.27710843373493976	-0.9024536205864752	-11.978456014362656	0.19150209455415917	4130.40293040293	1791.2087912087911	11.282442748091603	26.259541984732824	-19.893129770992367	-0.22488755622188905	-0.23088455772113942	-0.3118440779610195	100.52618144191179	31.549558987101772	
1.7375809023652578E12	-12.451219512195122	1.2530120481927711	0.060240963855421686	-1.9581089168162775	-12.457211250748054	0.15798922800718132	4127.472527472527	1711.3553113553112	17.84732824427481	28.30534351145038	15.572519083969466	-0.2353823088455772	-0.2368815592203898	-0.31334332833583206	100.52618144191179	31.549558987101772	
1.7375809023702322E12	-12.597560975609756	1.2409638554216869	-0.16867469879518074	-1.0700179533213645	-12.517055655296229	-0.10771992818671454	4128.937728937729	1679.120879120879	23.267175572519083	17.69465648854962	18.33587786259542	-0.2353823088455772	-0.2368815592203898	-0.31334332833583206	100.52618144191179	31.549558987101772	
1.7375809023752065E12	-12.74390243902439	1.0843373493975905	-0.5060240963855422	-0.9670855774985039	-12.698982645122681	-0.5122681029323758	4131.868131868132	1668.131868131868	26.931297709923662	5.465648854961832	13.129770992366412	-0.2338830584707646	-0.2353823088455772	-0.29985007496251875	100.52095831955789	31.549558987101772	
1.737580902380181E12	-12.878048780487806	0.060240963855421686	-0.3493975903614458	0.05745062836624776	-12.864153201675643	-0.3231597845601436	4134.798534798534	1668.8644688644688	26.62595419847328	-0.9618320610687022	16.900763358778626	-0.2338830584707646	-0.2353823088455772	-0.29985007496251875	100.52095831955789	31.549558987101772	
1.7375809023851553E12	-13.073170731707318	-0.24096385542168675	-0.3614457831325301	0.19389587073608616	-13.07241172950329	-0.4213046080191502	4143.589743589743	1678.3882783882782	24.793893129770993	-11.206106870229007	19.51145038167939	-0.2368815592203898	-0.24887556221889054	-0.3073463268365817	100.52095831955789	31.549558987101772	
1.7375809023901296E12	-13.341463414634147	-0.3855421686746988	-0.674698795180723	0.4213046080191502	-13.333333333333332	-0.8497905445840813	4153.846153846153	1701.098901098901	23.51145038167939	-18.77862595419847	19.114503816793892	-0.2368815592203898	-0.24887556221889054	-0.3073463268365817	100.52095831955789	31.549558987101772	
1.737580902395104E12	-13.536585365853659	-0.8433734939759037	-1.072289156626506	0.935966487133453	-13.52722920406942	-1.196888090963495	4133.333333333333	1682.051282051282	22.9618320610687	-24.396946564885496	19.725190839694655	-0.23238380809595202	-0.2353823088455772	-0.3148425787106447	100.52095831955789	31.549558987101772	
1.7375809024000784E12	-13.707317073170731	-1.421686746987952	-1.421686746987952	1.5152603231597845	-13.656493117893477	-1.5918611609814481	4099.6336996336995	1830.03663003663	22.885496183206104	-32.396946564885496	21.801526717557252	-0.23238380809595202	-0.2353823088455772	-0.3148425787106447	100.52095831955789	31.549558987101772	
1.7375809024050527E12	-13.75609756097561	-3.108433734939759	-1.7349397590361446	5.074805505685219	-13.845601436265708	-2.037103530819868	4096.7032967032965	1884.9816849816848	18.793893129770993	-48.12213740458015	2.5038167938931295	-0.22038980509745126	-0.24587706146926536	-0.32083958020989506	100.52618144191179	31.549558987101772	
1.737580902410027E12	-13.634146341463415	-3.3012048192771086	-1.7710843373493976	1.622980251346499	-13.342908438061041	-2.025134649910233	4105.494505494506	1920.14652014652	-0.12213740458015267	-65.57251908396947	-6.2748091603053435	-0.22038980509745126	-0.24587706146926536	-0.32083958020989506	100.52618144191179	31.549558987101772	
1.7375809024150015E12	-13.24390243902439	-1.4698795180722892	-1.8674698795180724	0.3877917414721723	-12.93836026331538	-1.7163375224416517	4145.054945054945	1787.5457875457873	8.6412213740458	-58.27480916030534	41.70992366412214	-0.23088455772113942	-0.22638680659670163	-0.29985007496251875	100.52618144191179	31.549558987101772	
1.7375809024199758E12	-12.402439024390244	-1.8433734939759037	-1.9397590361445785	2.0275284260921604	-12.023937761819269	-1.8240574506283662	4145.054945054945	1732.6007326007325	21.954198473282442	-51.06870229007633	36.06106870229007	-0.2368815592203898	-0.23238380809595202	-0.2983508245877061	100.52356987956102	31.549558987101772	
1.7375809024249502E12	-11.75609756097561	-2.313253012048193	-1.3975903614457832	2.283662477558348	-11.447037701974866	-1.189706762417714	4147.985347985347	1715.7509157509157	19.679389312977097	-58.396946564885496	37.63358778625954	-0.2368815592203898	-0.23238380809595202	-0.2983508245877061	100.52356987956102	31.549558987101772	
1.7375809024299246E12	-11.219512195121952	-2.4698795180722892	-0.9156626506024097	3.272292040694195	-11.064033512866546	-1.0029922202274086	4145.054945054945	1702.5641025641025	11.679389312977099	-71.00763358778626	29.46564885496183	-0.24137931034482757	-0.2383808095952024	-0.3028485757121439	100.52356987956102	31.549558987101772	
1.737580902434899E12	-10.634146341463415	-2.0120481927710845	-0.3253012048192771	0.6606822262118491	-10.238180730101735	-0.44763614602034707	4153.846153846153	1710.6227106227104	-11.16030534351145	-85.8473282442748	8.6412213740458	-0.24137931034482757	-0.2383808095952024	-0.3028485757121439	100.52356987956102	31.549558987101772	
1.7375809024398733E12	-9.987804878048781	0.16867469879518074	0.0	-0.8665469778575703	-9.627767803710352	0.040694195092758824	4143.589743589743	1695.2380952380952	-12.534351145038167	-60.33587786259542	39.038167938931295	-0.24437781109445278	-0.2338830584707646	-0.30134932533733133	100.52356987956102	31.549558987101772	
1.7375809024448477E12	-9.512195121951219	0.43373493975903615	-0.024096385542168676	-0.4045481747456613	-9.326152004787552	-0.0023937761819269898	4143.589743589743	1688.6446886446886	-9.297709923664122	-47.63358778625954	24.83969465648855	-0.24437781109445278	-0.2338830584707646	-0.30134932533733133	100.52356987956102	31.549558987101772	
1.737580902449822E12	-9.5	0.6265060240963856	0.49397590361445787	-0.7540394973070018	-9.409934171154998	0.5290245362058648	4139.194139194139	1684.249084249084	-17.84732824427481	-46.12213740458015	22.763358778625953	-0.24887556221889054	-0.21889055472263869	-0.3073463268365817	100.51834676190238	31.549558987101772	
1.7375809024547964E12	-9.621951219512196	1.1566265060240966	0.6506024096385542	-1.412327947336924	-9.565529622980252	0.4404548174745661	4147.985347985347	1695.970695970696	-28.65648854961832	-41.26717557251908	20.213740458015266	-0.24887556221889054	-0.21889055472263869	-0.3073463268365817	100.51834676190238	31.549558987101772	
1.7375809024597708E12	-9.804878048780488	1.710843373493976	0.4096385542168675	-1.9150209455415919	-9.785757031717534	0.15080789946140036	4146.520146520146	1695.970695970696	-36.15267175572519	-33.25190839694656	17.51145038167939	-0.24287856071964017	-0.2383808095952024	-0.3103448275862069	100.51834676190238	31.549558987101772	
1.737580902464745E12	-10.012195121951219	2.2650602409638556	0.04819277108433735	-2.41771394374626	-10.02752842609216	-0.21783363255535607	4143.589743589743	1689.3772893772893	-39.541984732824424	-22.793893129770993	14.900763358778626	-0.24287856071964017	-0.2383808095952024	-0.3103448275862069	100.52618144191179	31.549558987101772	
1.7375809024697195E12	-10.25609756097561	2.746987951807229	-0.3734939759036145	-2.889287851585877	-10.257330939557152	-0.476361460203471	4136.263736263736	1682.7838827838827	-37.63358778625954	-12.305343511450381	11.81679389312977	-0.24737631184407796	-0.25037481259370314	-0.32533733133433285	100.52618144191179	31.549558987101772	
1.7375809024746938E12	-10.451219512195122	3.132530120481928	-0.5301204819277109	-3.2483542788749253	-10.44883303411131	-0.5529622980251346	4140.65934065934	1682.7838827838827	-35.770992366412216	-5.358778625954198	8.870229007633588	-0.24737631184407796	-0.25037481259370314	-0.32533733133433285	100.52618144191179	31.549558987101772	
1.7375809024796682E12	-10.585365853658537	3.457831325301205	-0.746987951807229	-3.571514063435069	-10.57570317175344	-0.7923399162178336	4136.263736263736	1679.8534798534797	-32.854961832061065	2.198473282442748	5.755725190839694	-0.239880059970015	-0.2353823088455772	-0.29385307346326833	100.52095831955789	31.549558987101772	
1.7375809024846426E12	-10.670731707317074	3.7831325301204823	-1.0481927710843375	-3.7821663674446437	-10.62357869539198	-1.1346499102333931	4126.007326007326	1660.07326007326	-28.748091603053435	10.259541984732824	1.8931297709923662	-0.239880059970015	-0.2353823088455772	-0.29385307346326833	100.52095831955789	31.549558987101772	
1.737580902489617E12	-10.658536585365853	3.91566265060241	-1.3614457831325302	-3.8539796529024537	-10.556552962298024	-1.4721723518850987	4133.333333333333	1664.4688644688645	-23.43511450381679	17.587786259541986	-1.8015267175572518	-0.24137931034482757	-0.239880059970015	-0.3118440779610195	100.52095831955789	31.549558987101772	
1.7375809024945913E12	-10.536585365853659	3.855421686746988	-1.7590361445783134	-3.736684619988031	-10.367444643925793	-1.8551765409934171	4123.076923076923	1848.3516483516482	-17.84732824427481	23.48091603053435	-4.900763358778626	-0.24137931034482757	-0.239880059970015	-0.3118440779610195	100.52356987956102	31.549558987101772	
1.7375809024995657E12	-10.317073170731708	3.6506024096385543	-2.072289156626506	-3.4590065828845002	-10.1376421304608	-2.1615798922800717	4145.054945054945	1756.7765567765566	-12.167938931297709	27.374045801526716	-6.122137404580153	-0.2383808095952024	-0.23088455772113942	-0.3118440779610195	100.52356987956102	31.549558987101772	
1.73758090250454E12	-10.060975609756097	3.349397590361446	-2.36144578313253	-3.1621783363255536	-9.790544584081388	-2.4129263913824057	4131.868131868132	1699.6336996336995	-7.190839694656488	30.564885496183205	-6.564885496183206	-0.2383808095952024	-0.23088455772113942	-0.3118440779610195	100.52356987956102	31.549558987101772	
1.7375809025095144E12	-9.76829268292683	2.91566265060241	-2.5421686746987953	-2.6116098144823456	-9.680430879712747	-2.614003590664273	4147.985347985347	1702.5641025641025	-4.198473282442748	33.20610687022901	-6.641221374045801	-0.2353823088455772	-0.2383808095952024	-0.30134932533733133	100.52095831955789	31.549558987101772	
1.7375809025144888E12	-9.414634146341463	2.5060240963855422	-2.674698795180723	-2.4775583482944343	-9.345302214242968	-2.6762417713943747	4133.333333333333	1682.051282051282	-2.33587786259542	34.50381679389313	-6.351145038167939	-0.2353823088455772	-0.2383808095952024	-0.30134932533733133	100.52095831955789	31.549558987101772	
1.7375809025194631E12	-9.060975609756097	1.9759036144578315	-2.734939759036145	-1.9724715739078396	-8.940754039497307	-2.7408737283064033	4139.194139194139	1682.051282051282	-2.213740458015267	36.50381679389313	-5.068702290076335	-0.23088455772113942	-0.22488755622188905	-0.3043478260869565	100.52095831955789	31.549558987101772	
1.7375809025244375E12	-8.75609756097561	1.421686746987952	-2.819277108433735	-1.4506283662477557	-8.622381807301018	-2.8749251944943146	4127.472527472527	1665.9340659340658	-3.145038167938931	36.595419847328245	-3.7557251908396947	-0.23088455772113942	-0.22488755622188905	-0.3043478260869565	100.52879300661019	31.549558987101772	
1.7375809025294119E12	-8.414634146341463	0.8915662650602411	-2.855421686746988	-0.9287851585876721	-8.330341113105924	-2.9539198084979055	4127.472527472527	1659.3406593406592	-5.877862595419847	35.45038167938931	-1.3587786259541985	-0.2383808095952024	-0.23088455772113942	-0.3103448275862069	100.52879300661019	31.549558987101772	
1.7375809025343862E12	-8.231707317073171	0.3132530120481928	-2.951807228915663	-0.3518850987432675	-8.12687013764213	-3.001795332136445	4134.798534798534	1665.201465201465	-7.908396946564885	34.94656488549618	1.129770992366412	-0.2383808095952024	-0.23088455772113942	-0.3103448275862069	100.52879300661019	31.549558987101772	
1.7375809025393606E12	-8.097560975609756	-0.10843373493975904	-2.9759036144578315	0.09096349491322561	-7.97606223818073	-3.06163973668462	4126.007326007326	1653.4798534798533	-10.122137404580153	32.274809160305345	3.5114503816793894	-0.24137931034482757	-0.23238380809595202	-0.33883058470764615	100.51834676190238	31.549558987101772	
