"sep=	"
Shimmer_B5B6_TimestampSync_Unix_CAL	Shimmer_B5B6_Accel_LN_X_CAL	Shimmer_B5B6_Accel_LN_Y_CAL	Shimmer_B5B6_Accel_LN_Z_CAL	Shimmer_B5B6_Accel_WR_X_CAL	Shimmer_B5B6_Accel_WR_Y_CAL	Shimmer_B5B6_Accel_WR_Z_CAL	Shimmer_B5B6_Battery_CAL	Shimmer_B5B6_Ext_Exp_A6_CAL	Shimmer_B5B6_Gyro_X_CAL	Shimmer_B5B6_Gyro_Y_CAL	Shimmer_B5B6_Gyro_Z_CAL	Shimmer_B5B6_Mag_X_CAL	Shimmer_B5B6_Mag_Y_CAL	Shimmer_B5B6_Mag_Z_CAL	Shimmer_B5B6_Pressure_BMP280_CAL	Shimmer_B5B6_Temperature_BMP280_CAL	
ms	m/(s^2)	m/(s^2)	m/(s^2)	m/(s^2)	m/(s^2)	m/(s^2)	mV	mV	deg/s	deg/s	deg/s	local_flux	local_flux	local_flux	kPa	Degrees Celsius	
1.7375815574392905E12	-9.719512195121952	0.6867469879518072	-1.1566265060240966	-0.7707959305804907	-9.646918013165768	-1.1274685816876122	4123.076923076923	1895.970695970696	-0.030534351145038167	2.748091603053435	-1.4961832061068703	-0.2638680659670165	-0.2098950524737631	-0.27586206896551724	100.53188676310056	35.836387797357744	
1.737581557444269E12	-9.719512195121952	0.6987951807228916	-1.1325301204819278	-0.7899461400359066	-9.632555356074207	-1.1346499102333931	4111.355311355311	1931.135531135531	-0.3053435114503817	2.595419847328244	-1.8931297709923662	-0.2698650674662669	-0.2338830584707646	-0.2848575712143928	100.53188676310056	35.836387797357744	
1.7375815574492473E12	-9.707317073170731	0.746987951807229	-1.1325301204819278	-0.7779772591262717	-9.591861160981448	-1.1154997007779772	4104.029304029304	1939.194139194139	-0.564885496183206	2.4122137404580153	-1.6335877862595418	-0.2698650674662669	-0.2338830584707646	-0.2848575712143928	100.53714540053753	35.836387797357744	
1.7375815574542258E12	-9.682926829268293	0.7590361445783133	-1.144578313253012	-0.7803710353081986	-9.548773189706763	-1.1226810293237581	4115.750915750916	1955.311355311355	-0.9465648854961831	2.183206106870229	-1.66412213740458	-0.2653673163418291	-0.2083958020989505	-0.28785607196401797	100.53714540053753	35.836387797357744	
1.7375815574592043E12	-9.670731707317074	0.7710843373493976	-1.1325301204819278	-0.8019150209455416	-9.555954518252543	-1.1394374625972472	4130.40293040293	1786.080586080586	-1.2366412213740459	1.9083969465648853	-1.6335877862595418	-0.2653673163418291	-0.2083958020989505	-0.28785607196401797	100.53714540053753	35.836387797357744	
1.7375815574641826E12	-9.646341463414634	0.7710843373493976	-1.1325301204819278	-0.7971274685816876	-9.563135846798325	-1.1154997007779772	4105.494505494506	1879.8534798534797	-1.2519083969465647	1.816793893129771	-1.9541984732824427	-0.26686656671664166	-0.22188905547226387	-0.280359820089955	100.52925744795154	35.836387797357744	
1.7375815574691611E12	-9.634146341463415	0.7590361445783133	-1.1204819277108435	-0.7660083782166367	-9.522441651705565	-1.1298623578695393	4105.494505494506	1918.6813186813185	-1.66412213740458	1.450381679389313	-1.8625954198473282	-0.26686656671664166	-0.22188905547226387	-0.280359820089955	100.52925744795154	35.836387797357744	
1.7375815574741396E12	-9.646341463414634	0.7349397590361446	-1.1325301204819278	-0.7755834829443446	-9.52722920406942	-1.1394374625972472	4121.611721611721	1952.3809523809523	-1.3587786259541985	1.4351145038167938	-2.2900763358778624	-0.2788605697151424	-0.22038980509745126	-0.2833583208395802	100.52925744795154	35.836387797357744	
1.737581557479118E12	-9.609756097560975	0.7228915662650602	-1.1566265060240966	-0.7564332734889287	-9.481747456612807	-1.151406343506882	4124.542124542124	1972.8937728937728	-1.1755725190839694	0.8854961832061068	-2.16793893129771	-0.2788605697151424	-0.22038980509745126	-0.2833583208395802	100.53714540053753	35.836387797357744	
1.7375815574840964E12	-9.609756097560975	0.710843373493976	-1.1686746987951808	-0.7396768402154399	-9.51047277079593	-1.168162776780371	4112.820512820513	1968.4981684981683	-1.4961832061068703	0.7175572519083969	-1.9389312977099236	-0.26686656671664166	-0.2128935532233883	-0.2788605697151424	100.53714540053753	35.836387797357744	
1.737581557489075E12	-9.621951219512196	0.710843373493976	-1.1566265060240966	-0.7253141831238779	-9.543985637342908	-1.1370436864153202	4134.798534798534	1794.139194139194	-1.8778625954198473	0.3511450381679389	-2.0763358778625953	-0.26686656671664166	-0.2128935532233883	-0.2788605697151424	100.53714540053753	35.836387797357744	
1.7375815574940532E12	-9.670731707317074	0.7228915662650602	-1.1325301204819278	-0.7660083782166367	-9.589467384799521	-1.1394374625972472	4124.542124542124	1906.227106227106	-2.381679389312977	0.366412213740458	-2.0	-0.2623688155922039	-0.22038980509745126	-0.2833583208395802	100.53451608062923	35.836387797357744	
1.7375815574990317E12	-9.670731707317074	0.746987951807229	-1.108433734939759	-0.7947336923997605	-9.555954518252543	-1.132256134051466	4130.40293040293	1765.5677655677655	-2.854961832061069	0.42748091603053434	-2.16793893129771	-0.2623688155922039	-0.22038980509745126	-0.2833583208395802	100.53451608062923	35.836387797357744	
1.7375815575040103E12	-9.682926829268293	0.783132530120482	-1.0963855421686748	-0.7947336923997605	-9.563135846798325	-1.1059245960502693	4127.472527472527	1700.3663003663003	-3.068702290076336	0.015267175572519083	-1.9389312977099236	-0.26836581709145424	-0.2098950524737631	-0.2773613193403298	100.53451608062923	35.836387797357744	
1.7375815575089885E12	-9.695121951219512	0.783132530120482	-1.108433734939759	-0.8378216636744464	-9.618192698982645	-1.1059245960502693	4126.007326007326	1668.8644688644688	-3.0534351145038165	0.13740458015267176	-2.045801526717557	-0.26836581709145424	-0.2098950524737631	-0.2773613193403298	100.53188676310056	35.836387797357744	
1.737581557513967E12	-9.682926829268293	0.783132530120482	-1.0963855421686748	-0.8090963494913226	-9.591861160981448	-1.1178934769599043	4126.007326007326	1655.6776556776556	-3.16030534351145	-0.32061068702290074	-2.045801526717557	-0.2653673163418291	-0.2128935532233883	-0.280359820089955	100.53188676310056	35.836387797357744	
1.7375815575189456E12	-9.695121951219512	0.7951807228915663	-1.0963855421686748	-0.8354278874925194	-9.594254937163376	-1.0963494913225613	4121.611721611721	1843.956043956044	-3.5114503816793894	-0.015267175572519083	-1.9389312977099236	-0.2653673163418291	-0.2128935532233883	-0.280359820089955	100.53188676310056	35.836387797357744	
1.7375815575239238E12	-9.682926829268293	0.7951807228915663	-1.0963855421686748	-0.8689407540394973	-9.601436265709156	-1.1035308198683422	4109.89010989011	1908.4249084249084	-3.6488549618320607	-0.21374045801526717	-1.8931297709923662	-0.2653673163418291	-0.21589205397301348	-0.2773613193403298	100.53188676310056	35.836387797357744	
1.7375815575289023E12	-9.670731707317074	0.819277108433735	-1.0843373493975905	-0.8737283064033513	-9.584679832435667	-1.0628366247755834	4120.14652014652	1943.5897435897434	-3.3435114503816794	-0.366412213740458	-1.984732824427481	-0.2653673163418291	-0.21589205397301348	-0.2773613193403298	100.53188676310056	35.836387797357744	
1.7375815575338809E12	-9.658536585365853	0.8313253012048193	-1.1204819277108435	-0.8593656493117894	-9.572710951526032	-1.0604428485936566	4117.216117216117	1958.2417582417581	-3.145038167938931	-0.2900763358778626	-2.091603053435114	-0.26686656671664166	-0.22188905547226387	-0.2773613193403298	100.53188676310056	35.836387797357744	
1.7375815575388591E12	-9.609756097560975	0.8433734939759037	-1.1204819277108435	-0.8378216636744464	-9.520047875523638	-1.1202872531418313	4121.611721611721	1969.9633699633698	-3.0839694656488548	-0.7480916030534351	-2.0	-0.26686656671664166	-0.22188905547226387	-0.2773613193403298	100.53451608062923	35.836387797357744	
1.7375815575438376E12	-9.597560975609756	0.8433734939759037	-1.1204819277108435	-0.8761220825852782	-9.496110113704368	-1.1274685816876122	4131.868131868132	1788.278388278388	-3.1755725190839694	-1.0381679389312977	-1.648854961832061	-0.2698650674662669	-0.21739130434782608	-0.27586206896551724	100.53451608062923	35.836387797357744	
1.737581557548816E12	-9.573170731707318	0.8433734939759037	-1.1566265060240966	-0.8809096349491322	-9.481747456612807	-1.156193895870736	4121.611721611721	1898.9010989010987	-3.83206106870229	-1.6946564885496183	-1.8931297709923662	-0.2698650674662669	-0.21739130434782608	-0.27586206896551724	100.53451608062923	35.836387797357744	
1.7375815575537944E12	-9.585365853658537	0.8313253012048193	-1.1566265060240966	-0.8761220825852782	-9.450628366247756	-1.156193895870736	4112.820512820513	1937.7289377289376	-4.198473282442748	-2.4427480916030535	-1.8473282442748091	-0.272863568215892	-0.22338830584707645	-0.2863568215892054	100.52925744795154	35.836387797357744	
1.737581557558773E12	-9.573170731707318	0.8313253012048193	-1.1566265060240966	-0.8904847396768402	-9.481747456612807	-1.1346499102333931	4099.6336996336995	1936.263736263736	-4.152671755725191	-3.0076335877862594	-2.198473282442748	-0.272863568215892	-0.22338830584707645	-0.2863568215892054	100.52925744795154	35.836387797357744	
1.7375815575637512E12	-9.560975609756097	0.855421686746988	-1.180722891566265	-0.8689407540394973	-9.464991023339318	-1.168162776780371	4114.285714285714	1949.4505494505493	-4.763358778625954	-4.030534351145038	-1.7251908396946565	-0.2578710644677661	-0.20689655172413793	-0.280359820089955	100.52925744795154	35.836387797357744	
1.7375815575687297E12	-9.573170731707318	0.8313253012048193	-1.2048192771084338	-0.8545780969479353	-9.464991023339318	-1.1825254338719329	4104.029304029304	1947.2527472527472	-5.038167938931298	-4.412213740458015	-1.7404580152671756	-0.2578710644677661	-0.20689655172413793	-0.280359820089955	100.53188676310056	35.836387797357744	
1.7375815575737083E12	-9.560975609756097	0.855421686746988	-1.2530120481927711	-0.8761220825852782	-9.47935368043088	-1.2471573907839617	4112.820512820513	1958.2417582417581	-5.740458015267175	-5.358778625954198	-1.83206106870229	-0.26686656671664166	-0.2143928035982009	-0.2773613193403298	100.53188676310056	35.836387797357744	
1.7375815575786865E12	-9.573170731707318	0.855421686746988	-1.2891566265060241	-0.8880909634949132	-9.4721723518851	-1.2782764811490126	4098.1684981684975	1944.3223443223442	-6.564885496183206	-6.763358778625954	-1.9389312977099236	-0.26686656671664166	-0.2143928035982009	-0.2773613193403298	100.53188676310056	35.836387797357744	
1.737581557583665E12	-9.585365853658537	0.8674698795180723	-1.2650602409638554	-0.9168162776780371	-9.474566128067025	-1.2375822860562538	4106.959706959707	1950.18315018315	-6.885496183206107	-7.801526717557252	-1.7404580152671756	-0.2608695652173913	-0.20239880059970014	-0.27436281859070466	100.53714540053753	35.836387797357744	
1.7375815575886436E12	-9.560975609756097	0.8433734939759037	-1.3012048192771084	-0.8665469778575703	-9.4721723518851	-1.2758827049670856	4105.494505494506	1948.7179487179485	-7.3893129770992365	-8.67175572519084	-1.7557251908396947	-0.2608695652173913	-0.20239880059970014	-0.27436281859070466	100.53714540053753	35.836387797357744	
1.7375815575936218E12	-9.536585365853659	0.8795180722891567	-1.3253012048192772	-0.9000598444045481	-9.46259724715739	-1.3237582286056253	4108.424908424908	1947.9853479853477	-7.175572519083969	-10.0	-1.6946564885496183	-0.2623688155922039	-0.21589205397301348	-0.2833583208395802	100.53714540053753	35.836387797357744	
1.7375815575986003E12	-9.52439024390244	0.9156626506024097	-1.313253012048193	-0.926391382405745	-9.426690604428485	-1.2710951526032315	4099.6336996336995	1940.6593406593406	-6.8396946564885495	-10.320610687022901	-1.8778625954198473	-0.2623688155922039	-0.21589205397301348	-0.2833583208395802	100.53188676310056	35.836387797357744	
1.7375815576035789E12	-9.512195121951219	0.9397590361445783	-1.2650602409638554	-1.0053859964093357	-9.400359066427288	-1.2902453620586476	4124.542124542124	1967.7655677655675	-6.305343511450381	-10.412213740458014	-2.610687022900763	-0.2653673163418291	-0.22188905547226387	-0.280359820089955	100.53188676310056	35.836387797357744	
1.7375815576085571E12	-9.475609756097562	1.0120481927710845	-1.2771084337349399	-1.0652304009575104	-9.393177737881508	-1.2184320766008379	4124.542124542124	1979.4871794871794	-6.1679389312977095	-10.244274809160306	-3.282442748091603	-0.2653673163418291	-0.22188905547226387	-0.280359820089955	100.53188676310056	35.836387797357744	
1.7375815576135356E12	-9.426829268292684	1.0481927710843375	-1.216867469879518	-1.1131059245960502	-9.364452423698385	-1.187312986235787	4128.937728937729	1790.4761904761904	-5.7251908396946565	-10.030534351145038	-4.061068702290076	-0.26686656671664166	-0.2083958020989505	-0.2818590704647676	100.53188676310056	35.836387797357744	
1.7375815576185142E12	-9.426829268292684	1.1686746987951808	-1.144578313253012	-1.199281867145422	-9.299820466786356	-1.0939557151406343	4117.216117216117	1894.5054945054944	-4.793893129770992	-9.221374045801527	-4.687022900763359	-0.26686656671664166	-0.2083958020989505	-0.2818590704647676	100.53188676310056	35.836387797357744	
1.7375815576234924E12	-9.378048780487806	1.2289156626506024	-1.0963855421686748	-1.2663076002393776	-9.285457809694794	-1.0436864153201675	4133.333333333333	1761.9047619047617	-3.8931297709923665	-8.274809160305344	-5.343511450381679	-0.26836581709145424	-0.22338830584707645	-0.280359820089955	100.53188676310056	35.836387797357744	
1.737581557628471E12	-9.341463414634147	1.3253012048192772	-1.036144578313253	-1.3309395571514062	-9.201675643327349	-0.9718731298623579	4096.7032967032965	1857.8754578754576	-2.8702290076335877	-6.870229007633587	-6.793893129770992	-0.2653673163418291	-0.21139430284857572	-0.272863568215892	100.52662813518214	35.836387797357744	
1.7375815576334495E12	-9.26829268292683	1.385542168674699	-0.963855421686747	-1.4219030520646319	-9.175344105326152	-0.952722920406942	4126.007326007326	1733.3333333333333	-2.1221374045801524	-5.114503816793893	-7.786259541984733	-0.2653673163418291	-0.21139430284857572	-0.272863568215892	100.52662813518214	35.836387797357744	
1.7375815576384277E12	-9.24390243902439	1.4096385542168675	-0.9277108433734941	-1.414721723518851	-9.158587672052663	-0.9216038300418911	4127.472527472527	1687.9120879120878	-2.6259541984732824	-3.450381679389313	-8.244274809160306	-0.2563718140929535	-0.21739130434782608	-0.2638680659670165	100.52662813518214	35.836387797357744	
1.7375815576434062E12	-9.25609756097561	1.4337349397590362	-0.9277108433734941	-1.4602034709754637	-9.18491921005386	-0.9239976062238181	4121.611721611721	1857.8754578754576	-2.687022900763359	-1.465648854961832	-9.083969465648854	-0.2563718140929535	-0.21739130434782608	-0.2638680659670165	100.53188676310056	35.836387797357744	
1.7375815576483848E12	-9.304878048780488	1.457831325301205	-0.9397590361445783	-1.4985038898862957	-9.21603830041891	-0.9216038300418911	4131.868131868132	1740.6593406593406	-2.8091603053435112	-0.8854961832061068	-9.251908396946565	-0.2638680659670165	-0.21739130434782608	-0.27586206896551724	100.53188676310056	35.836387797357744	
1.737581557653363E12	-9.365853658536587	1.5542168674698795	-0.9518072289156627	-1.5391980849790545	-9.292639138240574	-0.9575104727707959	4093.7728937728934	1848.3516483516482	-2.8702290076335877	0.6106870229007634	-9.49618320610687	-0.2638680659670165	-0.21739130434782608	-0.27586206896551724	100.53188676310056	35.836387797357744	
1.7375815576583416E12	-9.414634146341463	1.5421686746987953	-0.9518072289156627	-1.5176540993417116	-9.3836026331538	-0.9599042489527229	4127.472527472527	1734.7985347985348	-2.5801526717557253	1.9694656488549618	-9.099236641221374	-0.2698650674662669	-0.22638680659670163	-0.27436281859070466	100.53451608062923	35.836387797357744	
1.73758155766332E12	-9.5	1.493975903614458	-0.9518072289156627	-1.4937163375224416	-9.46259724715739	-0.9670855774985039	4109.89010989011	1864.4688644688642	-2.427480916030534	3.9389312977099236	-8.839694656488549	-0.2698650674662669	-0.22638680659670163	-0.27436281859070466	100.53451608062923	35.836387797357744	
1.7375815576682983E12	-9.585365853658537	1.4457831325301205	-0.9759036144578314	-1.4482345900658289	-9.493716337522441	-0.943147815679234	4086.4468864468863	1891.5750915750914	-2.564885496183206	5.175572519083969	-8.442748091603054	-0.26836581709145424	-0.22338830584707645	-0.27586206896551724	100.53451608062923	35.836387797357744	
1.7375815576732769E12	-9.609756097560975	1.3734939759036144	-0.9759036144578314	-1.3883901855176541	-9.524835427887492	-0.943147815679234	4133.333333333333	1761.172161172161	-2.4732824427480917	6.671755725190839	-8.106870229007633	-0.26836581709145424	-0.22338830584707645	-0.27586206896551724	100.52662813518214	35.836387797357744	
1.7375815576782554E12	-9.634146341463415	1.3253012048192772	-0.9518072289156627	-1.3237582286056253	-9.539198084979054	-0.93836026331538	4128.937728937729	1699.6336996336995	-1.5114503816793892	8.702290076335878	-7.435114503816793	-0.27136431784107945	-0.22488755622188905	-0.27586206896551724	100.52662813518214	35.836387797357744	
1.7375815576832336E12	-9.670731707317074	1.2289156626506024	-1.0	-1.2615200478755235	-9.591861160981448	-0.9838420107719928	4096.7032967032965	1832.234432234432	-0.8396946564885496	10.412213740458014	-6.458015267175572	-0.27136431784107945	-0.22488755622188905	-0.27586206896551724	100.52662813518214	35.836387797357744	
1.7375815576882122E12	-9.658536585365853	1.1566265060240966	-0.9879518072289157	-1.187312986235787	-9.591861160981448	-0.9599042489527229	4137.728937728937	1737.7289377289376	-0.32061068702290074	11.31297709923664	-5.587786259541985	-0.26686656671664166	-0.21739130434782608	-0.2818590704647676	100.52925744795154	35.836387797357744	
1.7375815576931907E12	-9.670731707317074	1.0843373493975905	-1.0	-1.1226810293237581	-9.567923399162177	-0.9910233393177738	4130.40293040293	1695.970695970696	0.732824427480916	12.549618320610687	-4.366412213740458	-0.26686656671664166	-0.21739130434782608	-0.2818590704647676	100.52925744795154	35.836387797357744	
1.737581557698169E12	-9.646341463414634	1.0120481927710845	-1.0240963855421688	-1.0412926391382404	-9.579892280071814	-0.9910233393177738	4134.798534798534	1680.5860805860805	1.465648854961832	13.648854961832061	-3.2671755725190836	-0.26686656671664166	-0.22038980509745126	-0.2788605697151424	100.52925744795154	35.836387797357744	
1.7375815577031475E12	-9.646341463414634	0.9518072289156627	-1.036144578313253	-1.0005984440454818	-9.57510472770796	-1.0700179533213645	4127.472527472527	1665.9340659340658	1.5114503816793892	14.564885496183205	-2.1374045801526718	-0.26686656671664166	-0.22038980509745126	-0.2788605697151424	100.52925744795154	35.836387797357744	
1.737581557708126E12	-9.646341463414634	0.9277108433734941	-1.0963855421686748	-0.9886295631358468	-9.55834829443447	-1.0867743865948534	4136.263736263736	1673.9926739926739	2.198473282442748	15.190839694656487	-1.2213740458015268	-0.26836581709145424	-0.21739130434782608	-0.27586206896551724	100.52925744795154	35.836387797357744	
1.7375815577131042E12	-9.621951219512196	0.9036144578313253	-1.1204819277108435	-0.9551166965888689	-9.529622980251347	-1.141831238779174	4131.868131868132	1665.201465201465	2.7938931297709924	15.572519083969466	0.07633587786259542	-0.26836581709145424	-0.21739130434782608	-0.27586206896551724	100.52925744795154	35.836387797357744	
1.7375815577180828E12	-9.573170731707318	0.8915662650602411	-1.1566265060240966	-0.947935368043088	-9.484141232794734	-1.158587672052663	4140.65934065934	1676.1904761904761	3.0839694656488548	15.450381679389313	1.7251908396946565	-0.2653673163418291	-0.21589205397301348	-0.27586206896551724	100.53188676310056	35.836387797357744	
1.7375815577230613E12	-9.548780487804878	0.8795180722891567	-1.216867469879518	-0.943147815679234	-9.412327947336923	-1.187312986235787	4131.868131868132	1666.6666666666665	3.8167938931297707	15.251908396946565	2.9923664122137406	-0.2653673163418291	-0.21589205397301348	-0.27586206896551724	100.53188676310056	35.836387797357744	
1.7375815577280396E12	-9.475609756097562	0.8313253012048193	-1.2530120481927711	-0.8785158587672053	-9.201675643327349	-1.2471573907839617	4131.868131868132	1662.2710622710622	4.7328244274809155	15.343511450381678	4.137404580152672	-0.2623688155922039	-0.2128935532233883	-0.2773613193403298	100.53188676310056	35.836387797357744	
1.737581557733018E12	-9.329268292682928	0.7590361445783133	-1.3012048192771084	-0.8234590065828845	-9.22561340514662	-1.2591262716935967	4124.542124542124	1852.0146520146518	6.244274809160305	14.687022900763358	5.145038167938931	-0.2623688155922039	-0.2128935532233883	-0.2773613193403298	100.53451608062923	35.836387797357744	
1.7375815577379963E12	-9.207317073170731	0.6987951807228916	-1.3373493975903614	-0.7468581687612208	-9.105924596050269	-1.3333333333333333	4120.14652014652	1919.4139194139193	7.557251908396946	14.13740458015267	5.893129770992366	-0.2563718140929535	-0.2143928035982009	-0.2818590704647676	100.53451608062923	35.836387797357744	
1.7375815577429749E12	-9.085365853658537	0.6385542168674699	-1.2891566265060241	-0.6846199880311191	-8.993417115499701	-1.2543387193297426	4128.937728937729	1765.5677655677655	8.48854961832061	14.15267175572519	6.549618320610687	-0.2563718140929535	-0.2143928035982009	-0.2818590704647676	100.53451608062923	35.836387797357744	
1.7375815577479534E12	-9.012195121951219	0.5421686746987953	-1.2409638554216869	-0.5984440454817475	-8.912028725314183	-1.2208258527827647	4118.681318681319	1888.6446886446886	8.732824427480915	13.389312977099236	7.66412213740458	-0.26686656671664166	-0.2098950524737631	-0.2698650674662669	100.53451608062923	35.836387797357744	
1.7375815577529316E12	-8.963414634146341	0.44578313253012053	-1.216867469879518	-0.5098743267504489	-8.856971873129861	-1.2064631956912029	4114.285714285714	1928.9377289377287	8.580152671755725	12.748091603053435	8.610687022900763	-0.26686656671664166	-0.2098950524737631	-0.2698650674662669	100.53451608062923	35.836387797357744	
1.7375815577579102E12	-8.926829268292684	0.3493975903614458	-1.180722891566265	-0.4260921603830042	-8.847396768402154	-1.1274685816876122	4121.611721611721	1956.7765567765566	8.48854961832061	12.534351145038167	8.900763358778626	-0.2698650674662669	-0.21739130434782608	-0.280359820089955	100.53451608062923	35.836387797357744	
1.7375815577628887E12	-8.951219512195122	0.2530120481927711	-1.072289156626506	-0.29204069419509276	-8.856971873129861	-1.1011370436864152	4121.611721611721	1969.230769230769	8.061068702290076	12.732824427480915	9.98473282442748	-0.2698650674662669	-0.21739130434782608	-0.280359820089955	100.53451608062923	35.836387797357744	
1.737581557767867E12	-8.963414634146341	0.14457831325301207	-0.9879518072289157	-0.2130460801915021	-8.864153201675643	-0.9910233393177738	4124.542124542124	1980.21978021978	7.251908396946565	13.251908396946565	10.549618320610687	-0.26836581709145424	-0.21139430284857572	-0.2788605697151424	100.53451608062923	35.836387797357744	
1.7375815577728455E12	-8.987804878048781	0.060240963855421686	-0.9277108433734941	-0.15080789946140036	-8.888090963494912	-0.947935368043088	4123.076923076923	1979.4871794871794	6.519083969465648	14.442748091603052	11.068702290076336	-0.26836581709145424	-0.21139430284857572	-0.2788605697151424	100.53451608062923	35.836387797357744	
1.737581557777824E12	-9.02439024390244	0.024096385542168676	-0.8433734939759037	-0.08856971873129862	-8.9311789347696	-0.8713345302214243	4136.263736263736	1803.6630036630036	4.885496183206107	16.47328244274809	11.862595419847327	-0.2563718140929535	-0.20539730134932532	-0.2848575712143928	100.53188676310056	35.836387797357744	
1.7375815577828022E12	-9.121951219512196	0.03614457831325302	-0.7951807228915663	-0.10532615200478755	-9.053261520047876	-0.8426092160383004	4126.007326007326	1712.087912087912	2.213740458015267	19.00763358778626	12.625954198473282	-0.2563718140929535	-0.20539730134932532	-0.2848575712143928	100.53188676310056	35.836387797357744	
1.7375815577877808E12	-9.231707317073171	0.03614457831325302	-0.7590361445783133	-0.05745062836624776	-9.175344105326152	-0.8450029922202273	4123.076923076923	1868.131868131868	-0.21374045801526717	21.236641221374043	13.740458015267174	-0.27586206896551724	-0.2128935532233883	-0.2773613193403298	100.53188676310056	35.836387797357744	
1.7375815577927593E12	-9.439024390243903	0.0	-0.8433734939759037	-0.038300418910831836	-9.347695990424896	-0.9024536205864752	4136.263736263736	1756.7765567765566	-2.4427480916030535	22.534351145038165	14.213740458015266	-0.27586206896551724	-0.2128935532233883	-0.2773613193403298	100.53451608062923	35.836387797357744	
1.7375815577977375E12	-9.634146341463415	0.04819277108433735	-0.9277108433734941	-0.0933572710951526	-9.541591861160981	-0.9886295631358468	4126.007326007326	1692.3076923076922	-4.198473282442748	24.366412213740457	14.6412213740458	-0.2653673163418291	-0.21739130434782608	-0.27436281859070466	100.53451608062923	35.836387797357744	
1.737581557802716E12	-9.841463414634147	0.18072289156626506	-0.9879518072289157	-0.24895272292040693	-9.809694793536805	-1.0460801915020945	4109.89010989011	1846.153846153846	-5.557251908396946	26.97709923664122	15.17557251908397	-0.2653673163418291	-0.21739130434782608	-0.27436281859070466	100.53451608062923	35.836387797357744	
1.7375815578076946E12	-10.097560975609756	0.3253012048192771	-1.108433734939759	-0.3997606223818073	-10.063435068821065	-1.1178934769599043	4096.7032967032965	1892.3076923076922	-5.923664122137405	28.671755725190838	15.358778625954198	-0.2593703148425787	-0.22488755622188905	-0.2863568215892054	100.53714540053753	35.836387797357744	
1.7375815578126729E12	-10.341463414634147	0.5180722891566265	-1.2409638554216869	-0.5721125074805505	-10.309994015559544	-1.2591262716935967	4111.355311355311	1929.6703296703295	-6.244274809160305	30.35114503816794	15.877862595419847	-0.2593703148425787	-0.22488755622188905	-0.2863568215892054	100.53714540053753	35.836387797357744	
1.7375815578176514E12	-10.560975609756097	0.6867469879518072	-1.313253012048193	-0.7229204069419509	-10.523040095751046	-1.3261520047875524	4111.355311355311	1945.7875457875457	-6.290076335877862	31.175572519083968	16.076335877862594	-0.2698650674662669	-0.21589205397301348	-0.280359820089955	100.53714540053753	35.836387797357744	
1.73758155782263E12	-10.731707317073171	0.8072289156626506	-1.3373493975903614	-0.9096349491322561	-10.697785757031717	-1.3046080191502094	4109.89010989011	1952.3809523809523	-4.870229007633587	31.770992366412212	15.938931297709923	-0.2698650674662669	-0.21589205397301348	-0.280359820089955	100.52925744795154	35.836387797357744	
1.7375815578276082E12	-10.853658536585366	0.9397590361445783	-1.3373493975903614	-1.0125673249551166	-10.79114302812687	-1.2830640335128665	4111.355311355311	1955.311355311355	-2.4732824427480917	30.564885496183205	15.603053435114504	-0.2593703148425787	-0.2083958020989505	-0.2773613193403298	100.52925744795154	35.836387797357744	
1.7375815578325867E12	-10.890243902439025	0.9879518072289157	-1.2650602409638554	-1.0412926391382404	-10.846199880311191	-1.153800119688809	4111.355311355311	1956.7765567765566	-0.16793893129770993	29.00763358778626	15.190839694656487	-0.2593703148425787	-0.2083958020989505	-0.2773613193403298	100.52925744795154	35.836387797357744	
1.7375815578375652E12	-10.865853658536587	0.963855421686747	-1.0240963855421688	-1.0005984440454818	-10.788749251944942	-0.926391382405745	4118.681318681319	1967.7655677655675	1.3587786259541985	26.16793893129771	14.595419847328243	-0.26686656671664166	-0.22038980509745126	-0.280359820089955	100.53451608062923	35.836387797357744	
1.7375815578425435E12	-10.76829268292683	0.9036144578313253	-0.746987951807229	-0.8928785158587672	-10.664272890484739	-0.6558946738479952	4117.216117216117	1967.7655677655675	2.7022900763358777	22.793893129770993	13.801526717557252	-0.26686656671664166	-0.22038980509745126	-0.280359820089955	100.53451608062923	35.836387797357744	
1.737581557847522E12	-10.573170731707318	0.783132530120482	-0.5301204819277109	-0.7588270496708558	-10.439257929383603	-0.45960502692998206	4118.681318681319	1972.8937728937728	3.0534351145038165	19.0381679389313	13.374045801526718	-0.2653673163418291	-0.2143928035982009	-0.2848575712143928	100.53451608062923	35.836387797357744	
1.7375815578525005E12	-10.378048780487806	0.6265060240963856	-0.4096385542168675	-0.6056253740275284	-10.197486535008977	-0.42848593656493117	4120.14652014652	1971.4285714285713	1.5419847328244274	16.885496183206108	12.564885496183205	-0.2653673163418291	-0.2143928035982009	-0.2848575712143928	100.53451608062923	35.836387797357744	
1.7375815578574788E12	-10.231707317073171	0.45783132530120485	-0.42168674698795183	-0.45960502692998206	-10.10652304009575	-0.4883303411131059	4126.007326007326	1781.6849816849815	-1.297709923664122	14.82442748091603	11.282442748091603	-0.2638680659670165	-0.21889055472263869	-0.2833583208395802	100.53451608062923	35.836387797357744	
1.7375815578624573E12	-10.109756097560975	0.26506024096385544	-0.43373493975903615	-0.23937761819269898	-10.020347097546379	-0.43566726511071213	4139.194139194139	1723.0769230769229	-3.4198473282442747	11.511450381679388	11.129770992366412	-0.2638680659670165	-0.21889055472263869	-0.2833583208395802	100.53451608062923	35.836387797357744	
1.7375815578674358E12	-10.036585365853659	0.07228915662650603	-0.3493975903614458	-0.0718132854578097	-9.91741472172352	-0.3518850987432675	4130.40293040293	1690.10989010989	-5.251908396946565	8.549618320610687	10.580152671755725	-0.2563718140929535	-0.2128935532233883	-0.27586206896551724	100.53451608062923	35.836387797357744	
1.737581557872414E12	-9.926829268292684	-0.04819277108433735	-0.18072289156626506	0.052663076002393776	-9.840813883901856	-0.17713943746259725	4115.750915750916	1852.0146520146518	-6.488549618320611	6.213740458015267	10.80916030534351	-0.2563718140929535	-0.2128935532233883	-0.27586206896551724	100.53451608062923	35.836387797357744	
1.7375815578773926E12	-9.951219512195122	-0.1927710843373494	-0.060240963855421686	0.24177139437462597	-9.814482345900657	-0.033512866546977854	4092.307692307692	1893.040293040293	-6.870229007633587	4.99236641221374	9.709923664122137	-0.2383808095952024	-0.22638680659670163	-0.2893553223388306	100.53451608062923	35.836387797357744	
1.737581557882371E12	-9.951219512195122	-0.28915662650602414	-0.07228915662650603	0.2585278276481149	-9.85278276481149	-0.09575104727707959	4093.7728937728934	1910.6227106227104	-7.129770992366412	3.3893129770992365	9.450381679389313	-0.2383808095952024	-0.22638680659670163	-0.2893553223388306	100.53451608062923	35.836387797357744	
1.7375815578873494E12	-10.036585365853659	-0.3493975903614458	-0.07228915662650603	0.36385397965290245	-9.94853381208857	-0.045481747456612806	4134.798534798534	1769.9633699633698	-7.343511450381679	2.396946564885496	8.610687022900763	-0.2608695652173913	-0.20239880059970014	-0.2863568215892054	100.53451608062923	35.836387797357744	
1.737581557892328E12	-10.121951219512196	-0.3493975903614458	-0.12048192771084337	0.2872531418312388	-10.049072411729503	-0.11490125673249552	4134.798534798534	1711.3553113553112	-7.1603053435114505	2.213740458015267	7.694656488549618	-0.2608695652173913	-0.20239880059970014	-0.2863568215892054	100.53451608062923	35.836387797357744	
1.7375815578973064E12	-10.207317073170731	-0.30120481927710846	-0.10843373493975904	0.2513464991023339	-10.18551765409934	-0.0933572710951526	4136.263736263736	1692.3076923076922	-6.6106870229007635	2.396946564885496	6.778625954198473	-0.2698650674662669	-0.21589205397301348	-0.2893553223388306	100.53451608062923	35.836387797357744	
1.7375815579022847E12	-10.329268292682928	-0.21686746987951808	-0.12048192771084337	0.15559545182525433	-10.295631358467983	-0.11968880909634949	4130.40293040293	1676.923076923077	-5.343511450381679	2.6259541984732824	5.587786259541985	-0.2698650674662669	-0.21589205397301348	-0.2893553223388306	100.53451608062923	35.836387797357744	
1.7375815579072632E12	-10.5	-0.08433734939759037	-0.1566265060240964	0.01436265709156194	-10.436864153201675	-0.15798922800718132	4101.098901098901	1832.9670329670328	-3.633587786259542	3.1755725190839694	4.213740458015267	-0.2653673163418291	-0.2098950524737631	-0.2788605697151424	100.53451608062923	35.836387797357744	
1.7375815579122417E12	-10.585365853658537	0.012048192771084338	-0.26506024096385544	-0.05026929982046679	-10.53740275284261	-0.24895272292040693	4123.076923076923	1917.216117216117	-0.5038167938931297	3.9389312977099236	2.3664122137404577	-0.2653673163418291	-0.2098950524737631	-0.2788605697151424	100.52925744795154	35.836387797357744	
1.73758155791722E12	-10.646341463414634	0.0963855421686747	-0.3614457831325301	-0.11011370436864153	-10.604428485936564	-0.36624775583482944	4133.333333333333	1771.4285714285713	2.2442748091603053	4.534351145038168	0.183206106870229	-0.2593703148425787	-0.2098950524737631	-0.2893553223388306	100.52925744795154	35.836387797357744	
1.7375815579221985E12	-10.682926829268293	0.14457831325301207	-0.39759036144578314	-0.15798922800718132	-10.621184919210053	-0.4069419509275883	4126.007326007326	1698.168498168498	4.229007633587786	5.099236641221374	-1.984732824427481	-0.2593703148425787	-0.2098950524737631	-0.2893553223388306	100.52925744795154	35.836387797357744	
1.7375815579271768E12	-10.658536585365853	0.18072289156626506	-0.45783132530120485	-0.19868342309994014	-10.580490724117295	-0.3997606223818073	4131.868131868132	1676.1904761904761	5.267175572519084	5.603053435114504	-4.213740458015267	-0.26686656671664166	-0.21589205397301348	-0.2848575712143928	100.52925744795154	35.836387797357744	
1.7375815579321553E12	-10.634146341463415	0.2530120481927711	-0.42168674698795183	-0.26092160383004187	-10.56852184320766	-0.4189108318372232	4131.868131868132	1666.6666666666665	6.152671755725191	6.458015267175572	-6.381679389312977	-0.26686656671664166	-0.21589205397301348	-0.2848575712143928	100.52925744795154	35.836387797357744	
1.7375815579371338E12	-10.585365853658537	0.3253012048192771	-0.44578313253012053	-0.36624775583482944	-10.482345900658288	-0.4236983842010772	4133.333333333333	1668.131868131868	7.404580152671755	6.778625954198473	-8.290076335877862	-0.26836581709145424	-0.2128935532233883	-0.2848575712143928	100.52925744795154	35.836387797357744	
1.737581557942112E12	-10.5	0.3373493975903615	-0.46987951807228917	-0.36385397965290245	-10.386594853381208	-0.48354278874925194	4112.820512820513	1841.7582417582416	8.122137404580153	7.49618320610687	-9.83206106870229	-0.26836581709145424	-0.2128935532233883	-0.2848575712143928	100.53188676310056	35.836387797357744	
1.7375815579470906E12	-10.390243902439025	0.3614457831325301	-0.46987951807228917	-0.43566726511071213	-10.238180730101735	-0.4931178934769599	4124.542124542124	1926.007326007326	7.8473282442748085	7.206106870229007	-11.099236641221374	-0.239880059970015	-0.23088455772113942	-0.2833583208395802	100.53188676310056	35.836387797357744	
1.737581557952069E12	-10.28048780487805	0.44578313253012053	-0.5060240963855422	-0.5074805505685218	-10.132854578096948	-0.5266307600239377	4128.937728937729	1768.4981684981683	7.374045801526718	7.2824427480916025	-11.908396946564885	-0.239880059970015	-0.23088455772113942	-0.2833583208395802	100.53188676310056	35.836387797357744	
1.7375815579570474E12	-10.158536585365853	0.49397590361445787	-0.5421686746987953	-0.5529622980251346	-10.005984440454817	-0.5433871932974267	4140.65934065934	1718.6813186813185	6.854961832061068	7.267175572519084	-12.564885496183205	-0.2593703148425787	-0.21139430284857572	-0.2833583208395802	100.52925744795154	35.836387797357744	
1.737581557962026E12	-10.0	0.5060240963855422	-0.49397590361445787	-0.5481747456612807	-9.82166367444644	-0.48354278874925194	4130.40293040293	1687.9120879120878	6.061068702290076	7.694656488549618	-12.702290076335878	-0.2593703148425787	-0.21139430284857572	-0.2833583208395802	100.52925744795154	35.836387797357744	
1.7375815579670044E12	-9.817073170731708	0.49397590361445787	-0.44578313253012053	-0.5553560742070617	-9.644524236983841	-0.45002992220227406	4131.868131868132	1671.0622710622708	4.778625954198473	8.244274809160306	-12.82442748091603	-0.2518740629685157	-0.2143928035982009	-0.2863568215892054	100.52925744795154	35.836387797357744	
1.7375815579719827E12	-9.658536585365853	0.5060240963855422	-0.45783132530120485	-0.5314183123877917	-9.572710951526032	-0.41412327947336924	4115.750915750916	1843.956043956044	3.847328244274809	8.15267175572519	-12.366412213740457	-0.2518740629685157	-0.2143928035982009	-0.2863568215892054	100.52925744795154	35.836387797357744	
1.7375815579769612E12	-9.548780487804878	0.4819277108433735	-0.44578313253012053	-0.5385996409335727	-9.421903052064632	-0.471573907839617	4118.681318681319	1920.14652014652	4.015267175572519	8.839694656488549	-12.610687022900763	-0.24887556221889054	-0.2098950524737631	-0.2863568215892054	100.52925744795154	35.836387797357744	
1.7375815579819397E12	-9.463414634146341	0.5060240963855422	-0.4819277108433735	-0.5673249551166966	-9.36684619988031	-0.47875523638539796	4133.333333333333	1772.161172161172	4.061068702290076	8.687022900763358	-11.908396946564885	-0.24887556221889054	-0.2098950524737631	-0.2863568215892054	100.52925744795154	35.836387797357744	
1.737581557986918E12	-9.426829268292684	0.5060240963855422	-0.5542168674698795	-0.5433871932974267	-9.295032914422501	-0.5721125074805505	4131.868131868132	1706.227106227106	4.1679389312977095	8.931297709923664	-11.007633587786259	-0.2593703148425787	-0.21589205397301348	-0.2818590704647676	100.52925744795154	35.836387797357744	
1.7375815579918965E12	-9.414634146341463	0.43373493975903615	-0.5903614457831325	-0.49790544584081387	-9.275882704967085	-0.5984440454817475	4124.542124542124	1870.3296703296703	2.4580152671755724	8.885496183206106	-9.648854961832061	-0.2593703148425787	-0.21589205397301348	-0.2818590704647676	100.52925744795154	35.836387797357744	
1.737581557996875E12	-9.329268292682928	0.3855421686746988	-0.5783132530120483	-0.4380610412926391	-9.244763614602034	-0.6343506882106523	4127.472527472527	1743.5897435897434	0.48854961832061067	8.99236641221374	-8.213740458015266	-0.2653673163418291	-0.2143928035982009	-0.28785607196401797	100.52925744795154	35.836387797357744	
1.7375815580018533E12	-9.304878048780488	0.3373493975903615	-0.5421686746987953	-0.3590664272890485	-9.235188509874327	-0.5769000598444045	4123.076923076923	1880.5860805860805	-0.8549618320610687	9.297709923664122	-6.824427480916031	-0.2653673163418291	-0.2143928035982009	-0.28785607196401797	100.52662813518214	35.836387797357744	
1.7375815580068318E12	-9.26829268292683	0.28915662650602414	-0.5542168674698795	-0.3518850987432675	-9.146618791143029	-0.5385996409335727	4121.611721611721	1936.9963369963368	-1.7709923664122136	9.679389312977099	-5.541984732824427	-0.2653673163418291	-0.21889055472263869	-0.28785607196401797	100.52662813518214	35.836387797357744	
1.7375815580118103E12	-9.231707317073171	0.26506024096385544	-0.5301204819277109	-0.31597845601436264	-9.115499700777978	-0.5481747456612807	4106.959706959707	1947.2527472527472	-1.7709923664122136	10.213740458015266	-4.900763358778626	-0.2653673163418291	-0.21889055472263869	-0.28785607196401797	100.52662813518214	35.836387797357744	
1.7375815580167886E12	-9.182926829268293	0.21686746987951808	-0.5421686746987953	-0.27767803710353084	-9.046080191502094	-0.5481747456612807	4112.820512820513	1958.2417582417581	-1.648854961832061	10.702290076335878	-3.877862595419847	-0.2368815592203898	-0.22188905547226387	-0.29985007496251875	100.52925744795154	35.836387797357744	
1.737581558021767E12	-9.146341463414634	0.1927710843373494	-0.5783132530120483	-0.24655894673847994	-9.012567324955116	-0.5553560742070617	4106.959706959707	1956.0439560439559	-1.083969465648855	10.290076335877862	-3.114503816793893	-0.2368815592203898	-0.22188905547226387	-0.29985007496251875	100.52925744795154	35.836387797357744	
1.7375815580267456E12	-9.146341463414634	0.1927710843373494	-0.5542168674698795	-0.2728904847396768	-9.010173548773189	-0.5457809694793536	4105.494505494506	1950.9157509157508	-0.7022900763358778	10.625954198473282	-2.3206106870229006	-0.2518740629685157	-0.2128935532233883	-0.28785607196401797	100.52925744795154	35.836387797357744	
1.7375815580317239E12	-9.134146341463415	0.24096385542168675	-0.5542168674698795	-0.26810293237582283	-9.053261520047876	-0.5529622980251346	4115.750915750916	1960.4395604395604	-0.42748091603053434	10.748091603053435	-1.7862595419847327	-0.2518740629685157	-0.2128935532233883	-0.28785607196401797	100.52662813518214	35.836387797357744	
1.7375815580367024E12	-9.158536585365853	0.1927710843373494	-0.5542168674698795	-0.2585278276481149	-9.060442848593656	-0.5362058647516457	4112.820512820513	1963.3699633699632	-0.183206106870229	10.793893129770993	-1.1450381679389312	-0.2593703148425787	-0.22338830584707645	-0.2863568215892054	100.52662813518214	35.836387797357744	
1.737581558041681E12	-9.182926829268293	0.1927710843373494	-0.49397590361445787	-0.23937761819269898	-9.048473967684021	-0.4883303411131059	4106.959706959707	1958.2417582417581	-0.33587786259541985	11.007633587786259	-0.6106870229007634	-0.2593703148425787	-0.22338830584707645	-0.2863568215892054	100.52662813518214	35.836387797357744	
1.7375815580466592E12	-9.195121951219512	0.21686746987951808	-0.42168674698795183	-0.26331538001196886	-9.098743267504489	-0.4236983842010772	4111.355311355311	1957.5091575091574	-0.564885496183206	11.282442748091603	0.12213740458015267	-0.24887556221889054	-0.2128935532233883	-0.2788605697151424	100.53188676310056	35.836387797357744	
1.7375815580516377E12	-9.25609756097561	0.21686746987951808	-0.42168674698795183	-0.2561340514661879	-9.172950329144225	-0.41651705565529623	4102.5641025641025	1945.7875457875457	-0.4427480916030534	11.770992366412214	-0.0916030534351145	-0.24887556221889054	-0.2128935532233883	-0.2788605697151424	100.53188676310056	35.836387797357744	
1.7375815580566162E12	-9.317073170731708	0.1927710843373494	-0.4096385542168675	-0.22740873728306402	-9.261520047875523	-0.4069419509275883	4106.959706959707	1951.6483516483515	-0.0916030534351145	11.48091603053435	-0.04580152671755725	-0.2608695652173913	-0.21739130434782608	-0.2848575712143928	100.53188676310056	35.836387797357744	
1.7375815580615945E12	-9.353658536585366	0.18072289156626506	-0.3855421686746988	-0.22740873728306402	-9.278276481149012	-0.3375224416517056	4111.355311355311	1954.5787545787543	0.015267175572519083	11.297709923664122	0.7938931297709924	-0.2608695652173913	-0.21739130434782608	-0.2848575712143928	100.53451608062923	35.836387797357744	
1.737581558066573E12	-9.390243902439025	0.21686746987951808	-0.3253012048192771	-0.2872531418312388	-9.31178934769599	-0.29204069419509276	4108.424908424908	1950.9157509157508	-0.13740458015267176	11.618320610687022	0.6717557251908397	-0.2608695652173913	-0.21589205397301348	-0.29385307346326833	100.53451608062923	35.836387797357744	
1.7375815580715515E12	-9.439024390243903	0.2530120481927711	-0.24096385542168675	-0.2752842609216038	-9.352483542788748	-0.1699581089168163	4117.216117216117	1960.4395604395604	-0.24427480916030533	11.908396946564885	0.6870229007633587	-0.2608695652173913	-0.21589205397301348	-0.29385307346326833	100.53451608062923	35.836387797357744	
1.7375815580765298E12	-9.439024390243903	0.21686746987951808	-0.14457831325301207	-0.2537402752842609	-9.347695990424896	-0.08617594254937164	4108.424908424908	1953.8461538461538	-0.42748091603053434	11.938931297709923	1.083969465648855	-0.2578710644677661	-0.21589205397301348	-0.2833583208395802	100.53451608062923	35.836387797357744	
1.7375815580815083E12	-9.439024390243903	0.20481927710843376	-0.04819277108433735	-0.2800718132854578	-9.36684619988031	-0.0047875523638539795	4089.377289377289	1934.065934065934	-0.9465648854961831	11.83206106870229	1.816793893129771	-0.24137931034482757	-0.21739130434782608	-0.29985007496251875	100.53451608062923	35.836387797357744	
1.7375815580864868E12	-9.475609756097562	0.22891566265060243	-0.03614457831325302	-0.2800718132854578	-9.352483542788748	-0.023937761819269897	4117.216117216117	1954.5787545787543	-1.618320610687023	12.50381679389313	2.2748091603053435	-0.24137931034482757	-0.21739130434782608	-0.29985007496251875	100.53451608062923	35.836387797357744	
1.737581558091465E12	-9.52439024390244	0.26506024096385544	-0.10843373493975904	-0.33512866546977854	-9.429084380610412	-0.10771992818671454	4118.681318681319	1967.032967032967	-2.0610687022900764	13.694656488549617	2.351145038167939	-0.2518740629685157	-0.21139430284857572	-0.2908545727136432	100.53977472282547	35.836387797357744	
1.7375815580964436E12	-9.585365853658537	0.30120481927710846	-0.1566265060240964	-0.33273488928785155	-9.481747456612807	-0.14841412327947337	4127.472527472527	1784.6153846153845	-2.3664122137404577	13.83206106870229	2.4580152671755724	-0.2518740629685157	-0.21139430284857572	-0.2908545727136432	100.53977472282547	35.836387797357744	
1.737581558101422E12	-9.609756097560975	0.28915662650602414	-0.14457831325301207	-0.3494913225613405	-9.517654099341712	-0.1436265709156194	4121.611721611721	1898.168498168498	-2.9770992366412212	13.541984732824426	3.2671755725190836	-0.2578710644677661	-0.22338830584707645	-0.2863568215892054	100.53977472282547	35.836387797357744	
1.7375815581064004E12	-9.658536585365853	0.3373493975903615	-0.10843373493975904	-0.3997606223818073	-9.572710951526032	-0.045481747456612806	4126.007326007326	1750.18315018315	-3.1908396946564883	14.091603053435113	3.129770992366412	-0.2578710644677661	-0.22338830584707645	-0.2863568215892054	100.53451608062923	35.836387797357744	
1.737581558111379E12	-9.658536585365853	0.3734939759036145	-0.012048192771084338	-0.457211250748055	-9.565529622980252	-0.0023937761819269898	4128.937728937729	1695.970695970696	-2.916030534351145	14.290076335877862	3.6946564885496183	-0.25037481259370314	-0.21889055472263869	-0.2863568215892054	100.53451608062923	35.836387797357744	
1.7375815581163572E12	-9.621951219512196	0.3373493975903615	0.04819277108433735	-0.38539796529024534	-9.50329144225015	0.0718132854578097	4090.8424908424904	1824.1758241758241	-2.8396946564885495	14.076335877862595	3.5877862595419847	-0.25037481259370314	-0.21889055472263869	-0.2863568215892054	100.53451608062923	35.836387797357744	
1.7375815581213357E12	-9.597560975609756	0.27710843373493976	0.024096385542168676	-0.2752842609216038	-9.4721723518851	0.03590664272890485	4092.307692307692	1881.3186813186812	-2.8244274809160306	13.49618320610687	3.6946564885496183	-0.25037481259370314	-0.2083958020989505	-0.28785607196401797	100.53188676310056	35.836387797357744	
1.7375815581263142E12	-9.585365853658537	0.24096385542168675	0.03614457831325302	-0.26331538001196886	-9.496110113704368	0.02872531418312388	4134.798534798534	1757.5091575091574	-3.099236641221374	12.519083969465647	3.9847328244274807	-0.25037481259370314	-0.2083958020989505	-0.28785607196401797	100.53188676310056	35.836387797357744	
1.7375815581312925E12	-9.646341463414634	0.22891566265060243	0.03614457831325302	-0.22740873728306402	-9.587073608617594	0.023937761819269897	4133.333333333333	1704.7619047619046	-3.480916030534351	11.786259541984732	3.7862595419847325	-0.2698650674662669	-0.2143928035982009	-0.2893553223388306	100.53188676310056	35.836387797357744	
1.737581558136271E12	-9.719512195121952	0.16867469879518074	-0.012048192771084338	-0.19868342309994014	-9.649311789347696	-0.00718132854578097	4133.333333333333	1684.249084249084	-3.9083969465648853	11.022900763358779	3.312977099236641	-0.2698650674662669	-0.2143928035982009	-0.2893553223388306	100.52925744795154	35.836387797357744	
1.7375815581412495E12	-9.76829268292683	0.20481927710843376	-0.03614457831325302	-0.24895272292040693	-9.704368641532017	-0.06463195691202872	4133.333333333333	1674.7252747252746	-4.3206106870229	10.351145038167939	3.5572519083969465	-0.2653673163418291	-0.21589205397301348	-0.28785607196401797	100.52925744795154	35.836387797357744	
1.7375815581462278E12	-9.804878048780488	0.20481927710843376	-0.060240963855421686	-0.24177139437462597	-9.730700179533214	-0.0718132854578097	4126.007326007326	1657.8754578754579	-4.1679389312977095	9.557251908396946	3.7709923664122136	-0.2653673163418291	-0.21589205397301348	-0.28785607196401797	100.52925744795154	35.836387797357744	
1.7375815581512063E12	-9.804878048780488	0.18072289156626506	-0.03614457831325302	-0.17953321364452424	-9.737881508078994	-0.059844404548174746	4126.007326007326	1651.2820512820513	-4.763358778625954	8.061068702290076	3.236641221374046	-0.25487256371814093	-0.23238380809595202	-0.3073463268365817	100.53451608062923	35.836387797357744	
1.7375815581561848E12	-9.829268292682928	0.14457831325301207	-0.012048192771084338	-0.20107719928186715	-9.766606822262117	-0.023937761819269897	4118.681318681319	1840.2930402930401	-5.633587786259541	6.793893129770992	2.9770992366412212	-0.25487256371814093	-0.23238380809595202	-0.3073463268365817	100.53451608062923	35.836387797357744	
1.737581558161163E12	-9.841463414634147	0.13253012048192772	0.012048192771084338	-0.16517055655296228	-9.754637941352483	0.02872531418312388	4124.542124542124	1926.007326007326	-5.755725190839694	5.679389312977099	2.931297709923664	-0.24887556221889054	-0.2083958020989505	-0.2863568215892054	100.53451608062923	35.836387797357744	
1.7375815581661416E12	-9.841463414634147	0.08433734939759037	-0.012048192771084338	-0.0933572710951526	-9.747456612806703	0.031119090365050867	4126.007326007326	1761.9047619047617	-6.458015267175572	4.366412213740458	3.282442748091603	-0.24887556221889054	-0.2083958020989505	-0.2863568215892054	100.53451608062923	35.836387797357744	
1.73758155817112E12	-9.865853658536587	0.024096385542168676	-0.012048192771084338	-0.01436265709156194	-9.809694793536805	-0.031119090365050867	4128.937728937729	1700.3663003663003	-6.564885496183206	2.8854961832061066	2.4885496183206106	-0.2638680659670165	-0.22038980509745126	-0.2908545727136432	100.53451608062923	35.836387797357744	
1.7375815581760984E12	-9.890243902439025	-0.012048192771084338	-0.0963855421686747	0.0	-9.82884500299222	-0.09814482345900657	4131.868131868132	1676.923076923077	-6.106870229007633	1.7557251908396947	2.1374045801526718	-0.2638680659670165	-0.22038980509745126	-0.2908545727136432	100.53451608062923	35.836387797357744	
1.737581558181077E12	-9.890243902439025	-0.060240963855421686	-0.16867469879518074	0.023937761819269897	-9.807301017354877	-0.23219628964691802	4126.007326007326	1658.6080586080584	-6.198473282442748	0.549618320610687	1.8625954198473282	-0.24287856071964017	-0.20239880059970014	-0.280359820089955	100.53714540053753	35.836387797357744	
1.7375815581860554E12	-9.890243902439025	-0.0963855421686747	-0.22891566265060243	0.06702573309395571	-9.778575703171754	-0.29682824655894674	4131.868131868132	1659.3406593406592	-6.045801526717557	-0.9465648854961831	1.6030534351145038	-0.24287856071964017	-0.20239880059970014	-0.280359820089955	100.53714540053753	35.836387797357744	
1.7375815581910337E12	-9.841463414634147	-0.10843373493975904	-0.21686746987951808	0.047875523638539794	-9.723518850987432	-0.20586475164572113	4133.333333333333	1665.201465201465	-6.045801526717557	-2.7938931297709924	1.450381679389313	-0.25337331334332835	-0.2143928035982009	-0.29385307346326833	100.53714540053753	35.836387797357744	
1.7375815581960122E12	-9.78048780487805	-0.08433734939759037	-0.1927710843373494	0.02154398563734291	-9.634949132256134	-0.1603830041891083	4131.868131868132	1661.5384615384614	-6.366412213740458	-4.305343511450381	1.1603053435114503	-0.25337331334332835	-0.2143928035982009	-0.29385307346326833	100.53188676310056	35.836387797357744	
1.7375815582009907E12	-9.731707317073171	-0.07228915662650603	-0.10843373493975904	-0.009575104727707959	-9.634949132256134	-0.07420706163973669	4127.472527472527	1658.6080586080584	-6.519083969465648	-5.9541984732824424	0.732824427480916	-0.2578710644677661	-0.21889055472263869	-0.2893553223388306	100.53188676310056	35.836387797357744	
1.737581558205969E12	-9.707317073170731	-0.03614457831325302	-0.060240963855421686	-0.011968880909634948	-9.555954518252543	-0.040694195092758824	4133.333333333333	1664.4688644688645	-5.770992366412213	-7.7251908396946565	0.5801526717557252	-0.2578710644677661	-0.21889055472263869	-0.2893553223388306	100.53188676310056	35.836387797357744	
1.7375815582109475E12	-9.670731707317074	0.012048192771084338	-0.07228915662650603	-0.08138839018551765	-9.553560742070616	-0.059844404548174746	4131.868131868132	1661.5384615384614	-3.49618320610687	-8.977099236641221	-0.7480916030534351	-0.2593703148425787	-0.20239880059970014	-0.2863568215892054	100.52925744795154	35.836387797357744	
1.737581558215926E12	-9.621951219512196	0.08433734939759037	-0.07228915662650603	-0.17474566128067026	-9.546379413524836	-0.040694195092758824	4136.263736263736	1671.7948717948716	-0.9007633587786259	-10.030534351145038	-1.7404580152671756	-0.2593703148425787	-0.20239880059970014	-0.2863568215892054	100.52925744795154	35.836387797357744	
1.7375815582209043E12	-9.585365853658537	0.13253012048192772	-0.024096385542168676	-0.19150209455415917	-9.500897666068223	0.0	4118.681318681319	1849.084249084249	1.6793893129770991	-10.82442748091603	-2.5801526717557253	-0.2563718140929535	-0.22038980509745126	-0.3043478260869565	100.52925744795154	35.836387797357744	
1.7375815582258828E12	-9.548780487804878	0.18072289156626506	-0.012048192771084338	-0.22980251346499103	-9.491322561340514	0.052663076002393776	4126.007326007326	1729.6703296703295	3.7404580152671754	-12.67175572519084	-3.49618320610687	-0.2563718140929535	-0.22038980509745126	-0.3043478260869565	100.52925744795154	35.836387797357744	
1.7375815582308613E12	-9.5	0.21686746987951808	0.024096385542168676	-0.22501496110113703	-9.42429682824656	0.08617594254937164	4126.007326007326	1681.3186813186812	5.343511450381679	-14.061068702290076	-4.564885496183206	-0.2578710644677661	-0.2143928035982009	-0.29385307346326833	100.52925744795154	35.836387797357744	
1.7375815582358396E12	-9.451219512195122	0.16867469879518074	0.10843373493975904	-0.17713943746259725	-9.371633752244165	0.1436265709156194	4117.216117216117	1848.3516483516482	6.122137404580153	-15.083969465648854	-5.969465648854961	-0.2578710644677661	-0.2143928035982009	-0.29385307346326833	100.52925744795154	35.836387797357744	
1.737581558240818E12	-9.426829268292684	0.12048192771084337	0.1927710843373494	-0.17235188509874327	-9.369239976062238	0.20107719928186715	4121.611721611721	1923.0769230769229	5.0534351145038165	-16.458015267175572	-6.870229007633587	-0.2518740629685157	-0.21139430284857572	-0.28785607196401797	100.52662813518214	35.836387797357744	
1.7375815582457966E12	-9.487804878048781	0.0963855421686747	0.26506024096385544	-0.13165769000598443	-9.41472172351885	0.2537402752842609	4120.14652014652	1976.5567765567764	3.9236641221374042	-16.80916030534351	-7.541984732824427	-0.2518740629685157	-0.21139430284857572	-0.28785607196401797	100.52662813518214	35.836387797357744	
1.737581558250775E12	-9.536585365853659	0.03614457831325302	0.3253012048192771	-0.07420706163973669	-9.441053261520048	0.34470377019748655	4130.40293040293	1794.139194139194	2.2900763358778624	-17.32824427480916	-8.244274809160306	-0.2563718140929535	-0.22038980509745126	-0.2833583208395802	100.52662813518214	35.836387797357744	
1.7375815582557534E12	-9.573170731707318	-0.03614457831325302	0.3493975903614458	0.009575104727707959	-9.481747456612807	0.3399162178336326	4124.542124542124	1906.9597069597069	0.7022900763358778	-18.595419847328245	-8.183206106870228	-0.2563718140929535	-0.22038980509745126	-0.2833583208395802	100.53188676310056	35.836387797357744	
1.737581558260732E12	-9.621951219512196	-0.14457831325301207	0.28915662650602414	0.08138839018551765	-9.517654099341712	0.2752842609216038	4130.40293040293	1765.5677655677655	-1.450381679389313	-20.045801526717558	-7.877862595419847	-0.2563718140929535	-0.22338830584707645	-0.2833583208395802	100.53188676310056	35.836387797357744	
1.7375815582657102E12	-9.609756097560975	-0.18072289156626506	0.26506024096385544	0.11011370436864153	-9.51047277079593	0.22022740873728305	4121.611721611721	1890.1098901098899	-3.9236641221374042	-20.83969465648855	-7.404580152671755	-0.2563718140929535	-0.22338830584707645	-0.2833583208395802	100.53188676310056	35.836387797357744	
1.7375815582706887E12	-9.597560975609756	-0.20481927710843376	0.2530120481927711	0.17474566128067026	-9.4721723518851	0.22980251346499103	4127.472527472527	1752.3809523809523	-6.1679389312977095	-21.908396946564885	-7.114503816793893	-0.2563718140929535	-0.22038980509745126	-0.2863568215892054	100.53188676310056	35.836387797357744	
1.7375815582756672E12	-9.597560975609756	-0.22891566265060243	0.28915662650602414	0.20347097546379414	-9.496110113704368	0.23219628964691802	4128.937728937729	1696.7032967032967	-7.862595419847328	-23.053435114503817	-6.824427480916031	-0.2563718140929535	-0.22038980509745126	-0.2863568215892054	100.53188676310056	35.836387797357744	
1.7375815582806455E12	-9.597560975609756	-0.2530120481927711	0.26506024096385544	0.20586475164572113	-9.500897666068223	0.2561340514661879	4128.937728937729	1673.9926739926739	-8.717557251908397	-23.603053435114504	-6.229007633587786	-0.26686656671664166	-0.22338830584707645	-0.2893553223388306	100.53188676310056	35.836387797357744	
1.737581558285624E12	-9.646341463414634	-0.27710843373493976	0.22891566265060243	0.2537402752842609	-9.496110113704368	0.2585278276481149	4115.750915750916	1844.6886446886447	-9.893129770992367	-24.045801526717558	-5.648854961832061	-0.26686656671664166	-0.22338830584707645	-0.2893553223388306	100.52662813518214	35.836387797357744	
1.7375815582906025E12	-9.682926829268293	-0.3253012048192771	0.21686746987951808	0.2561340514661879	-9.594254937163376	0.19389587073608616	4084.981684981685	1877.6556776556774	-10.412213740458014	-25.053435114503817	-5.297709923664122	-0.2623688155922039	-0.2128935532233883	-0.3028485757121439	100.52662813518214	35.836387797357744	
1.7375815582955808E12	-9.74390243902439	-0.3373493975903615	0.1566265060240964	0.2824655894673848	-9.649311789347696	0.12208258527827648	4089.377289377289	1903.296703296703	-11.053435114503817	-26.13740458015267	-5.099236641221374	-0.2623688155922039	-0.2128935532233883	-0.3028485757121439	100.52662813518214	35.836387797357744	
1.7375815583005593E12	-9.804878048780488	-0.3614457831325301	0.07228915662650603	0.3087971274685817	-9.704368641532017	0.033512866546977854	4124.542124542124	1952.3809523809523	-12.076335877862595	-26.564885496183205	-5.038167938931298	-0.24887556221889054	-0.20689655172413793	-0.2833583208395802	100.53451608062923	35.836387797357744	
1.7375815583055376E12	-9.853658536585366	-0.3493975903614458	0.012048192771084338	0.29682824655894674	-9.771394374625972	0.00718132854578097	4111.355311355311	1956.0439560439559	-12.580152671755725	-27.297709923664122	-5.236641221374046	-0.24887556221889054	-0.20689655172413793	-0.2833583208395802	100.53451608062923	35.836387797357744	
1.737581558310516E12	-9.890243902439025	-0.3493975903614458	-0.060240963855421686	0.29204069419509276	-9.809694793536805	-0.05505685218432076	4104.029304029304	1950.18315018315	-12.870229007633588	-28.595419847328245	-5.312977099236641	-0.2623688155922039	-0.2098950524737631	-0.2893553223388306	100.53451608062923	35.836387797357744	
1.7375815583154946E12	-9.902439024390244	-0.3373493975903615	-0.08433734939759037	0.3016157989228007	-9.831238779174146	-0.07420706163973669	4109.89010989011	1953.8461538461538	-12.748091603053435	-29.221374045801525	-5.969465648854961	-0.2623688155922039	-0.2098950524737631	-0.2893553223388306	100.5239988247924	35.836387797357744	
1.737581558320473E12	-9.926829268292684	-0.3614457831325301	-0.07228915662650603	0.3255535607420706	-9.807301017354877	-0.038300418910831836	4108.424908424908	1950.9157509157508	-11.786259541984732	-30.27480916030534	-6.381679389312977	-0.2653673163418291	-0.22038980509745126	-0.2833583208395802	100.5239988247924	35.836387797357744	
1.7375815583254514E12	-9.914634146341463	-0.3855421686746988	-0.12048192771084337	0.31837223219628963	-9.816876122082585	-0.08138839018551765	4118.681318681319	1966.3003663003662	-11.053435114503817	-30.99236641221374	-6.717557251908397	-0.2653673163418291	-0.22038980509745126	-0.2833583208395802	100.5239988247924	35.836387797357744	
1.73758155833043E12	-9.878048780487806	-0.39759036144578314	-0.16867469879518074	0.3279473369239976	-9.795332136445243	-0.1364452423698384	4117.216117216117	1967.7655677655675	-10.80916030534351	-30.900763358778626	-7.358778625954198	-0.2578710644677661	-0.1874062968515742	-0.2818590704647676	100.53188676310056	35.836387797357744	
1.7375815583354082E12	-9.853658536585366	-0.3734939759036145	-0.1927710843373494	0.31837223219628963	-9.737881508078994	-0.21543985637342908	4117.216117216117	1968.4981684981683	-10.412213740458014	-30.793893129770993	-7.816793893129771	-0.2578710644677661	-0.1874062968515742	-0.2818590704647676	100.53188676310056	35.836387797357744	
1.7375815583403867E12	-9.890243902439025	-0.3734939759036145	-0.26506024096385544	0.31358467983243565	-9.824057450628366	-0.2537402752842609	4126.007326007326	1779.4871794871794	-9.740458015267174	-31.00763358778626	-8.351145038167939	-0.25487256371814093	-0.21139430284857572	-0.2908545727136432	100.53188676310056	35.836387797357744	
1.7375815583453652E12	-9.926829268292684	-0.3855421686746988	-0.27710843373493976	0.3399162178336326	-9.82884500299222	-0.23219628964691802	4136.263736263736	1720.8791208791208	-8.366412213740457	-31.63358778625954	-8.854961832061068	-0.25487256371814093	-0.21139430284857572	-0.2908545727136432	100.53188676310056	35.836387797357744	
1.7375815583503435E12	-9.963414634146341	-0.4096385542168675	-0.21686746987951808	0.36146020347097546	-9.85278276481149	-0.15320167564332735	4126.007326007326	1677.6556776556774	-6.8396946564885495	-33.06870229007634	-9.038167938931297	-0.2623688155922039	-0.21589205397301348	-0.29385307346326833	100.53188676310056	35.836387797357744	
1.737581558355322E12	-10.0	-0.42168674698795183	-0.07228915662650603	0.38061041292639136	-9.936564931178934	0.011968880909634948	4099.6336996336995	1827.8388278388277	-4.641221374045801	-34.30534351145038	-8.931297709923664	-0.2623688155922039	-0.21589205397301348	-0.29385307346326833	100.53188676310056	35.836387797357744	
1.7375815583603005E12	-10.036585365853659	-0.4096385542168675	0.10843373493975904	0.22980251346499103	-9.994015559545183	0.3997606223818073	4112.820512820513	1897.4358974358972	0.6564885496183206	-34.13740458015267	-7.7251908396946565	-0.2623688155922039	-0.23088455772113942	-0.2983508245877061	100.52925744795154	35.836387797357744	
1.7375815583752358E12	-10.195121951219512	-0.21686746987951808	0.3373493975903615	0.15559545182525433	-10.159186116098144	0.3040095751047277	4120.14652014652	1961.9047619047617	-1.0381679389312977	-33.725190839694655	-7.862595419847328	-0.2623688155922039	-0.23088455772113942	-0.2983508245877061	100.52925744795154	35.836387797357744	
1.737581558380214E12	-10.548780487804878	0.16867469879518074	0.0963855421686747	-0.41412327947336924	-10.54458408138839	-0.009575104727707959	4093.7728937728934	1939.9267399267399	-1.5877862595419847	-29.022900763358777	-7.6183206106870225	-0.2593703148425787	-0.2143928035982009	-0.29235382308845576	100.52925744795154	35.836387797357744	
1.7375815583851926E12	-10.975609756097562	0.7349397590361446	-0.28915662650602414	-0.926391382405745	-11.059245960502693	-0.41651705565529623	4133.333333333333	1781.6849816849815	0.183206106870229	-24.85496183206107	-8.900763358778626	-0.2593703148425787	-0.2143928035982009	-0.29235382308845576	100.52925744795154	35.836387797357744	
1.7375815583901711E12	-11.426829268292684	1.0843373493975905	-0.6144578313253012	-1.1490125673249552	-11.526032315978457	-0.6391382405745063	4123.076923076923	1897.4358974358972	2.748091603053435	-23.32824427480916	-10.900763358778626	-0.2593703148425787	-0.20389805097451275	-0.29235382308845576	100.52925744795154	35.836387797357744	
1.7375815583951494E12	-11.829268292682928	1.1927710843373494	-0.783132530120482	-1.2160383004189108	-11.889886295631358	-0.8186714542190305	4128.937728937729	1756.7765567765566	4.488549618320611	-22.519083969465647	-12.106870229007633	-0.2593703148425787	-0.20389805097451275	-0.29235382308845576	100.52925744795154	35.836387797357744	
1.737581558400128E12	-12.195121951219512	1.3253012048192772	-0.9277108433734941	-1.400359066427289	-12.280071813285458	-1.0365050867743866	4118.681318681319	1884.9816849816848	4.045801526717557	-22.198473282442748	-12.916030534351144	-0.2653673163418291	-0.2128935532233883	-0.2848575712143928	100.52925744795154	35.836387797357744	
1.7375815584051064E12	-12.560975609756097	1.63855421686747	-1.1566265060240966	-1.7354877318970676	-12.66786355475763	-1.2543387193297426	4126.007326007326	1744.3223443223442	3.6030534351145036	-19.526717557251906	-15.66412213740458	-0.2653673163418291	-0.2128935532233883	-0.2848575712143928	100.52925744795154	35.836387797357744	
1.7375815584100847E12	-13.0	1.9879518072289157	-1.4096385542168675	-2.073010173548773	-13.12986235786954	-1.40754039497307	4126.007326007326	1687.179487179487	7.251908396946565	-15.633587786259541	-18.35114503816794	-0.2608695652173913	-0.2128935532233883	-0.2863568215892054	100.52925744795154	35.836387797357744	
1.7375815584150632E12	-13.28048780487805	2.1927710843373496	-1.530120481927711	-2.2238180730101735	-13.292639138240574	-1.419509275882705	4112.820512820513	1849.8168498168498	13.450381679389313	-14.6412213740458	-20.335877862595417	-0.2608695652173913	-0.2128935532233883	-0.2863568215892054	100.53451608062923	35.836387797357744	
1.7375815584200417E12	-13.170731707317074	2.096385542168675	-1.3253012048192772	-2.0179533213644523	-12.991023339317774	-1.0628366247755834	4120.14652014652	1918.6813186813185	18.641221374045802	-15.190839694656487	-21.526717557251906	-0.2638680659670165	-0.21889055472263869	-0.28785607196401797	100.53451608062923	35.836387797357744	
1.73758155842502E12	-12.670731707317074	1.9156626506024097	-0.7590361445783133	-1.8240574506283662	-12.327947336923998	-0.4380610412926391	4115.750915750916	1946.5201465201465	21.43511450381679	-12.519083969465647	-22.50381679389313	-0.2638680659670165	-0.21889055472263869	-0.28785607196401797	100.53451608062923	35.836387797357744	
1.7375815584299985E12	-12.048780487804878	1.8072289156626506	-0.08433734939759037	-1.7402752842609215	-11.700777977259126	0.21783363255535607	4127.472527472527	1775.091575091575	21.832061068702288	-2.717557251908397	-23.16030534351145	-0.2623688155922039	-0.21589205397301348	-0.2818590704647676	100.53451608062923	35.836387797357744	
1.737581558434977E12	-11.597560975609756	1.7228915662650603	0.42168674698795183	-1.7163375224416517	-11.384799521244764	0.5816876122082585	4124.542124542124	1898.9010989010987	21.0381679389313	9.709923664122137	-23.083969465648853	-0.2623688155922039	-0.21589205397301348	-0.2818590704647676	100.53451608062923	35.836387797357744	
1.7375815584399553E12	-11.52439024390244	1.674698795180723	0.46987951807228917	-1.656493117893477	-11.454219030520646	0.4045481747456613	4114.285714285714	1933.3333333333333	20.30534351145038	21.34351145038168	-20.97709923664122	-0.26836581709145424	-0.2143928035982009	-0.2893553223388306	100.53451608062923	35.836387797357744	
1.7375815584449338E12	-11.658536585365853	1.5542168674698795	0.16867469879518074	-1.5607420706163972	-11.672052663076002	-0.08378216636744464	4123.076923076923	1960.4395604395604	19.389312977099237	29.725190839694655	-17.64885496183206	-0.26836581709145424	-0.2143928035982009	-0.2893553223388306	100.53714540053753	35.836387797357744	
1.7375815584499124E12	-11.804878048780488	1.313253012048193	-0.2530120481927711	-1.2998204667863555	-11.763016157989227	-0.45960502692998206	4131.868131868132	1784.6153846153845	17.709923664122137	31.31297709923664	-12.99236641221374	-0.2653673163418291	-0.21889055472263869	-0.28785607196401797	100.53714540053753	35.836387797357744	
1.7375815584548906E12	-11.817073170731708	1.0481927710843375	-0.49397590361445787	-0.9910233393177738	-11.636146020347097	-0.5697187312986236	4126.007326007326	1704.0293040293038	16.9618320610687	28.0	-8.931297709923664	-0.2653673163418291	-0.21889055472263869	-0.28785607196401797	100.53714540053753	35.836387797357744	
1.7375815584598691E12	-11.597560975609756	0.7710843373493976	-0.45783132530120485	-0.6535008976660682	-11.377618192698982	-0.26570915619389585	4128.937728937729	1676.923076923077	16.763358778625953	25.083969465648853	-6.641221374045801	-0.2653673163418291	-0.21139430284857572	-0.280359820089955	100.53188676310056	35.836387797357744	
1.7375815584648477E12	-11.304878048780488	0.4819277108433735	-0.10843373493975904	-0.3686415320167564	-11.076002393776182	0.15798922800718132	4133.333333333333	1671.7948717948716	17.450381679389313	24.62595419847328	-5.923664122137405	-0.2653673163418291	-0.21139430284857572	-0.280359820089955	100.53188676310056	35.836387797357744	
1.737581558469826E12	-11.085365853658537	0.1927710843373494	0.21686746987951808	-0.0933572710951526	-10.970676241771395	0.3973668461998803	4123.076923076923	1851.2820512820513	18.717557251908396	24.9618320610687	-5.938931297709924	-0.2608695652173913	-0.22338830584707645	-0.2818590704647676	100.53188676310056	35.836387797357744	
1.7375815584748044E12	-11.036585365853659	-0.10843373493975904	0.3132530120481928	0.038300418910831836	-10.961101137043686	0.17713943746259725	4127.472527472527	1734.7985347985348	18.80916030534351	24.259541984732824	-5.526717557251908	-0.2608695652173913	-0.22338830584707645	-0.2818590704647676	100.53451608062923	35.836387797357744	
1.737581558479783E12	-11.195121951219512	-0.39759036144578314	0.13253012048192772	0.3255535607420706	-11.092758827049671	0.15320167564332735	4120.14652014652	1871.7948717948716	18.106870229007633	22.77862595419847	-5.022900763358779	-0.2563718140929535	-0.21739130434782608	-0.2833583208395802	100.53451608062923	35.836387797357744	
1.7375815584847612E12	-11.536585365853659	-0.7590361445783133	-0.39759036144578314	0.6798324356672651	-11.439856373429084	-0.45242369838420105	4123.076923076923	1934.065934065934	16.076335877862594	16.16793893129771	-3.099236641221374	-0.2563718140929535	-0.21739130434782608	-0.2833583208395802	100.53451608062923	35.836387797357744	
1.7375815584897397E12	-11.878048780487806	-1.1927710843373494	-1.1204819277108435	1.0891681627767804	-11.820466786355475	-1.196888090963495	4118.681318681319	1958.974358974359	14.916030534351144	2.4427480916030535	-0.7938931297709924	-0.2623688155922039	-0.22938530734632684	-0.2833583208395802	100.53713677721555	35.85113644360099	
1.7375815584947183E12	-12.121951219512196	-1.5060240963855422	-1.6867469879518073	1.4338719329742668	-12.069419509275882	-1.7235188509874326	4120.14652014652	1965.5677655677655	17.587786259541986	-14.259541984732824	0.916030534351145	-0.2623688155922039	-0.22938530734632684	-0.2833583208395802	100.53713677721555	35.85113644360099	
1.7375815584996965E12	-12.207317073170731	-1.5783132530120483	-1.7831325301204821	1.5583482944344704	-12.14362657091562	-1.7953321364452424	4133.333333333333	1791.9413919413919	20.9618320610687	-23.114503816793892	0.21374045801526717	-0.25037481259370314	-0.22938530734632684	-0.2833583208395802	100.53713677721555	35.85113644360099	
1.737581558504675E12	-12.195121951219512	-1.4819277108433735	-1.5421686746987953	1.424296828246559	-12.136445242369838	-1.5535607420706163	4127.472527472527	1711.3553113553112	20.916030534351144	-23.175572519083968	-0.04580152671755725	-0.26686656671664166	-0.21889055472263869	-0.2818590704647676	100.53976616059897	35.85113644360099	
1.7375815585096533E12	-12.158536585365853	-1.3975903614457832	-1.6144578313253013	1.3285457809694794	-12.09575104727708	-1.668461998803112	4104.029304029304	1847.6190476190475	18.244274809160306	-21.526717557251906	-0.42748091603053434	-0.26686656671664166	-0.21889055472263869	-0.2818590704647676	100.53976616059897	35.85113644360099	
1.7375815585146318E12	-12.012195121951219	-1.2891566265060241	-2.0120481927710845	1.2208258527827647	-11.944943147815678	-2.1687612208258527	4120.14652014652	1918.6813186813185	14.183206106870228	-22.99236641221374	-1.114503816793893	-0.2608695652173913	-0.22188905547226387	-0.2893553223388306	100.53976616059897	35.85113644360099	
1.7375815585196104E12	-11.78048780487805	-1.0240963855421688	-2.5180722891566267	0.9766606822262118	-11.676840215439857	-2.7217235188509874	4123.076923076923	1953.8461538461538	9.34351145038168	-24.13740458015267	-2.4885496183206106	-0.2608695652173913	-0.22188905547226387	-0.2893553223388306	100.53450739621186	35.85113644360099	
1.7375815585245886E12	-11.414634146341465	-0.7228915662650602	-2.7951807228915664	0.6175942549371634	-11.279473369239977	-2.8964691801316578	4117.216117216117	1962.6373626373625	4.549618320610687	-24.3206106870229	-4.122137404580153	-0.2623688155922039	-0.21889055472263869	-0.27586206896551724	100.53450739621186	35.85113644360099	
1.7375815585295671E12	-11.012195121951219	-0.4096385542168675	-2.8313253012048194	0.3016157989228007	-10.882106523040095	-2.877318970676242	4114.285714285714	1960.4395604395604	1.4045801526717556	-24.27480916030534	-6.152671755725191	-0.2623688155922039	-0.21889055472263869	-0.27586206896551724	100.53450739621186	35.85113644360099	
1.7375815585345457E12	-10.658536585365853	-0.14457831325301207	-2.807228915662651	0.0933572710951526	-10.494314781567923	-2.858168761220826	4115.750915750916	1964.102564102564	-0.12213740458015267	-23.862595419847327	-7.786259541984733	-0.2638680659670165	-0.22338830584707645	-0.2833583208395802	100.53450739621186	35.85113644360099	
1.737581558539524E12	-10.390243902439025	0.07228915662650603	-2.91566265060241	-0.15559545182525433	-10.247755834829443	-2.951526032315978	4104.029304029304	1953.8461538461538	-0.8854961832061068	-23.49618320610687	-9.49618320610687	-0.2638680659670165	-0.22338830584707645	-0.2833583208395802	100.53450739621186	35.85113644360099	
1.7375815585445024E12	-10.146341463414634	0.3734939759036145	-2.9759036144578315	-0.42848593656493117	-10.058647516457212	-3.023339317773788	4108.424908424908	1950.9157509157508	-2.1221374045801524	-23.358778625954198	-10.778625954198473	-0.2608695652173913	-0.20689655172413793	-0.2833583208395802	100.53450739621186	35.85113644360099	
1.737581558549481E12	-9.902439024390244	0.6265060240963856	-2.927710843373494	-0.7492519449431478	-9.788150807899461	-2.9347695990424896	4114.285714285714	1955.311355311355	-3.7862595419847325	-23.893129770992367	-11.740458015267174	-0.2608695652173913	-0.20689655172413793	-0.2833583208395802	100.53450739621186	35.85113644360099	
1.7375815585544592E12	-9.646341463414634	0.9036144578313253	-2.855421686746988	-1.0149611011370436	-9.52722920406942	-2.805505685218432	4108.424908424908	1950.9157509157508	-4.9465648854961835	-25.038167938931295	-12.67175572519084	-0.2608695652173913	-0.2143928035982009	-0.2773613193403298	100.53450739621186	35.85113644360099	
1.7375815585594377E12	-9.341463414634147	1.2409638554216869	-2.734939759036145	-1.3429084380610412	-9.218432076600838	-2.74326750448833	4111.355311355311	1954.5787545787543	-6.519083969465648	-25.175572519083968	-13.221374045801527	-0.2608695652173913	-0.2143928035982009	-0.2773613193403298	100.53450739621186	35.85113644360099	
1.7375815585644163E12	-9.060975609756097	1.566265060240964	-2.698795180722892	-1.63016157989228	-8.907241172950329	-2.7265110712148415	4118.681318681319	1967.7655677655675	-7.770992366412213	-25.053435114503817	-14.122137404580153	-0.2578710644677661	-0.22038980509745126	-0.27136431784107945	100.53976616059897	35.85113644360099	
1.7375815585693945E12	-8.76829268292683	1.8674698795180724	-2.7228915662650603	-1.9461400359066428	-8.624775583482943	-2.7193297426690606	4118.681318681319	1972.8937728937728	-8.80916030534351	-24.99236641221374	-15.251908396946565	-0.2578710644677661	-0.22038980509745126	-0.27136431784107945	100.53976616059897	35.85113644360099	
1.737581558574373E12	-8.5	2.096385542168675	-2.734939759036145	-2.1567923399162177	-8.361460203470974	-2.7145421903052065	4117.216117216117	1969.9633699633698	-8.717557251908397	-25.93893129770992	-16.213740458015266	-0.2698650674662669	-0.22938530734632684	-0.2833583208395802	100.53976616059897	35.85113644360099	
1.7375815585793516E12	-8.25609756097561	2.1927710843373496	-2.734939759036145	-2.2238180730101735	-8.129263913824058	-2.7073608617594256	4108.424908424908	1957.5091575091574	-6.916030534351145	-26.900763358778626	-16.702290076335878	-0.2698650674662669	-0.22938530734632684	-0.2833583208395802	100.53713677721555	35.85113644360099	
1.7375815585843298E12	-8.02439024390244	2.204819277108434	-2.63855421686747	-2.1926989826451226	-7.911430281268701	-2.570915619389587	4120.14652014652	1964.8351648351647	-5.145038167938931	-26.610687022900763	-17.374045801526716	-0.2623688155922039	-0.2338830584707646	-0.2833583208395802	100.53713677721555	35.85113644360099	
1.7375815585893083E12	-7.817073170731708	2.096385542168675	-2.433734939759036	-2.056253740275284	-7.669658886894076	-2.360263315380012	4140.65934065934	1799.9999999999998	-4.366412213740458	-25.12977099236641	-17.66412213740458	-0.2623688155922039	-0.2338830584707646	-0.2833583208395802	100.53713677721555	35.85113644360099	
1.7375815585942869E12	-7.682926829268293	1.9156626506024097	-2.325301204819277	-1.905445840813884	-7.58587672052663	-2.2573309395571513	4133.333333333333	1723.0769230769229	-3.6030534351145036	-23.557251908396946	-18.12213740458015	-0.26686656671664166	-0.22038980509745126	-0.280359820089955	100.53187801758794	35.85113644360099	
1.7375815585992651E12	-7.682926829268293	1.7951807228915664	-2.289156626506024	-1.7594254937163374	-7.614602034709755	-2.295631358467983	4098.1684981684975	1846.153846153846	-3.1755725190839694	-20.97709923664122	-18.580152671755723	-0.26686656671664166	-0.22038980509745126	-0.280359820089955	100.53187801758794	35.85113644360099	
1.7375815586042437E12	-7.7682926829268295	1.6867469879518073	-2.253012048192771	-1.625374027528426	-7.70556552962298	-2.283662477558348	4090.8424908424904	1885.7142857142856	-3.312977099236641	-17.66412213740458	-19.740458015267176	-0.272863568215892	-0.21589205397301348	-0.280359820089955	100.53187801758794	35.85113644360099	
1.7375815586092222E12	-7.890243902439025	1.5783132530120483	-2.204819277108434	-1.5751047277079593	-7.849192100538599	-2.1879114302812686	4124.542124542124	1945.054945054945	-3.3587786259541983	-14.244274809160304	-19.81679389312977	-0.272863568215892	-0.21589205397301348	-0.280359820089955	100.53976616059897	35.85113644360099	
1.7375815586142004E12	-8.073170731707318	1.457831325301205	-2.096385542168675	-1.4434470377019748	-8.014362657091562	-2.0538599640933572	4124.542124542124	1969.9633699633698	-2.16793893129771	-10.564885496183205	-19.893129770992367	-0.27586206896551724	-0.22788605697151423	-0.2893553223388306	100.53976616059897	35.85113644360099	
1.737581558619179E12	-8.24390243902439	1.3614457831325302	-2.036144578313253	-1.371633752244165	-8.172351885098744	-1.9940155595451825	4096.7032967032965	1944.3223443223442	-0.3511450381679389	-7.801526717557252	-18.65648854961832	-0.27586206896551724	-0.22788605697151423	-0.2893553223388306	100.53976616059897	35.85113644360099	
1.7375815586241575E12	-8.365853658536585	1.2530120481927711	-2.024096385542169	-1.2687013764213046	-8.337522441651705	-1.9988031119090364	4139.194139194139	1790.4761904761904	1.129770992366412	-5.175572519083969	-18.229007633587784	-0.2563718140929535	-0.22038980509745126	-0.27136431784107945	100.53713677721555	35.85113644360099	
1.7375815586291357E12	-8.475609756097562	1.144578313253012	-2.0	-1.1466187911430281	-8.450029922202274	-1.9700777977259125	4133.333333333333	1719.4139194139193	3.0839694656488548	-2.8702290076335877	-17.709923664122137	-0.2563718140929535	-0.22038980509745126	-0.27136431784107945	100.53713677721555	35.85113644360099	
1.7375815586341143E12	-8.634146341463415	1.0481927710843375	-1.9397590361445785	-1.0915619389587072	-8.562537402752842	-1.9150209455415919	4136.263736263736	1695.970695970696	4.305343511450381	-0.6106870229007634	-16.076335877862594	-0.2638680659670165	-0.22938530734632684	-0.27586206896551724	100.53713677721555	35.85113644360099	
1.7375815586390928E12	-8.731707317073171	1.0481927710843375	-1.8915662650602412	-1.0724117295032913	-8.663076002393776	-1.8216636744464392	4092.307692307692	1828.5714285714284	5.236641221374046	1.297709923664122	-14.885496183206106	-0.2638680659670165	-0.22938530734632684	-0.27586206896551724	100.53187801758794	35.85113644360099	
1.737581558644071E12	-8.817073170731708	0.9759036144578314	-1.8313253012048194	-1.0771992818671454	-8.768402154398563	-1.7809694793536803	4114.285714285714	1904.0293040293038	6.152671755725191	2.8244274809160306	-13.541984732824426	-0.26686656671664166	-0.2083958020989505	-0.280359820089955	100.53187801758794	35.85113644360099	
1.7375815586490496E12	-8.963414634146341	1.0120481927710845	-1.746987951807229	-1.0891681627767804	-8.895272292040694	-1.7378815080789947	4112.820512820513	1939.194139194139	6.473282442748092	4.900763358778626	-10.946564885496183	-0.26686656671664166	-0.2083958020989505	-0.280359820089955	100.53187801758794	35.85113644360099	
1.737581558654028E12	-9.097560975609756	0.9759036144578314	-1.710843373493976	-1.0604428485936566	-9.098743267504489	-1.7067624177139438	4121.611721611721	1961.9047619047617	5.877862595419847	5.83206106870229	-8.458015267175572	-0.2578710644677661	-0.2338830584707646	-0.28785607196401797	100.53713677721555	35.85113644360099	
1.7375815586590063E12	-9.26829268292683	0.9397590361445783	-1.7228915662650603	-1.0221424296828245	-9.242369838420107	-1.6852184320766008	4128.937728937729	1783.150183150183	5.83206106870229	5.83206106870229	-5.358778625954198	-0.2578710644677661	-0.2338830584707646	-0.28785607196401797	100.53713677721555	35.85113644360099	
1.7375815586639849E12	-9.402439024390244	0.9397590361445783	-1.7228915662650603	-0.952722920406942	-9.307001795332136	-1.668461998803112	4130.40293040293	1714.2857142857142	6.244274809160305	6.3969465648854955	-3.3587786259541983	-0.2608695652173913	-0.21889055472263869	-0.2848575712143928	100.53713677721555	35.85113644360099	
1.7375815586689634E12	-9.414634146341463	0.8674698795180723	-1.6867469879518073	-0.9024536205864752	-9.31178934769599	-1.63016157989228	4131.868131868132	1682.051282051282	6.748091603053435	5.984732824427481	-0.8091603053435115	-0.2608695652173913	-0.21889055472263869	-0.2848575712143928	100.53187801758794	35.85113644360099	
1.7375815586739417E12	-9.390243902439025	0.7710843373493976	-1.602409638554217	-0.8330341113105925	-9.259126271693596	-1.5583482944344704	4111.355311355311	1842.4908424908424	7.0534351145038165	5.175572519083969	1.8015267175572518	-0.26836581709145424	-0.21139430284857572	-0.280359820089955	100.53187801758794	35.85113644360099	
1.7375815586789202E12	-9.341463414634147	0.6867469879518072	-1.5542168674698795	-0.7348892878515858	-9.220825852782765	-1.5751047277079593	4115.750915750916	1914.2857142857142	6.458015267175572	4.106870229007633	3.3587786259541983	-0.26836581709145424	-0.21139430284857572	-0.280359820089955	100.53187801758794	35.85113644360099	
1.7375815586838987E12	-9.26829268292683	0.6385542168674699	-1.566265060240964	-0.6558946738479952	-9.122681029323758	-1.5870736086175943	4131.868131868132	1764.8351648351647	6.198473282442748	3.0076335877862594	5.099236641221374	-0.26686656671664166	-0.21739130434782608	-0.28785607196401797	100.53450739621186	35.85113644360099	
1.737581558688877E12	-9.158536585365853	0.5783132530120483	-1.5783132530120483	-0.6247755834829444	-9.000598444045481	-1.589467384799521	4126.007326007326	1695.970695970696	5.3893129770992365	1.1450381679389312	6.381679389312977	-0.26686656671664166	-0.21739130434782608	-0.28785607196401797	100.53450739621186	35.85113644360099	
1.7375815586938555E12	-9.060975609756097	0.5662650602409639	-1.5783132530120483	-0.6032315978456014	-8.93836026331538	-1.5559545182525434	4121.611721611721	1860.07326007326	4.213740458015267	-0.3511450381679389	6.442748091603053	-0.26836581709145424	-0.22188905547226387	-0.2833583208395802	100.53450739621186	35.85113644360099	
1.7375815586988337E12	-8.975609756097562	0.5421686746987953	-1.530120481927711	-0.6080191502094554	-8.811490125673249	-1.5176540993417116	4127.472527472527	1739.9267399267399	3.068702290076336	-1.7557251908396947	7.0534351145038165	-0.26836581709145424	-0.22188905547226387	-0.2833583208395802	100.52924864134376	35.85113644360099	
1.7375815587038123E12	-8.902439024390244	0.5421686746987953	-1.5180722891566265	-0.5433871932974267	-8.780371035308198	-1.4817474566128066	4124.542124542124	1884.249084249084	2.8854961832061066	-3.480916030534351	7.312977099236641	-0.25037481259370314	-0.21889055472263869	-0.27136431784107945	100.52924864134376	35.85113644360099	
1.7375815587087908E12	-8.841463414634147	0.4819277108433735	-1.4819277108433735	-0.4955116696588869	-8.718132854578096	-1.4578096947935368	4130.40293040293	1756.0439560439559	2.229007633587786	-5.190839694656488	6.885496183206107	-0.25037481259370314	-0.21889055472263869	-0.27136431784107945	100.52924864134376	35.85113644360099	
1.737581558713769E12	-8.792682926829269	0.45783132530120485	-1.4457831325301205	-0.5074805505685218	-8.708557749850389	-1.4410532615200478	4131.868131868132	1699.6336996336995	1.3893129770992365	-5.908396946564885	5.770992366412213	-0.2578710644677661	-0.2353823088455772	-0.280359820089955	100.53450739621186	35.85113644360099	
1.7375815587187476E12	-8.78048780487805	0.4819277108433735	-1.421686746987952	-0.5026929982046678	-8.703770197486534	-1.395571514063435	4087.912087912088	1824.1758241758241	0.10687022900763359	-6.458015267175572	5.374045801526718	-0.2578710644677661	-0.2353823088455772	-0.280359820089955	100.53450739621186	35.85113644360099	
1.737581558723726E12	-8.76829268292683	0.43373493975903615	-1.3734939759036144	-0.48354278874925194	-8.682226211849192	-1.3333333333333333	4124.542124542124	1918.6813186813185	-0.8244274809160305	-7.114503816793893	4.244274809160305	-0.25037481259370314	-0.22638680659670163	-0.2788605697151424	100.53450739621186	35.85113644360099	
1.7375815587287043E12	-8.74390243902439	0.45783132530120485	-1.2891566265060241	-0.476361460203471	-8.670257330939556	-1.3046080191502094	4120.14652014652	1947.9853479853477	-1.4351145038167938	-7.2824427480916025	3.236641221374046	-0.25037481259370314	-0.22638680659670163	-0.2788605697151424	100.53187801758794	35.85113644360099	
1.7375815587336829E12	-8.695121951219512	0.45783132530120485	-1.2530120481927711	-0.4883303411131059	-8.64392579293836	-1.2232196289646917	4117.216117216117	1959.7069597069597	-1.9083969465648853	-7.3893129770992365	2.1221374045801524	-0.26686656671664166	-0.22788605697151423	-0.2848575712143928	100.53187801758794	35.85113644360099	
1.7375815587386614E12	-8.670731707317074	0.46987951807228917	-1.216867469879518	-0.5074805505685218	-8.574506283662478	-1.189706762417714	4121.611721611721	1969.9633699633698	-2.1374045801526718	-7.221374045801526	1.3587786259541985	-0.26686656671664166	-0.22788605697151423	-0.2848575712143928	100.53187801758794	35.85113644360099	
1.7375815587436396E12	-8.621951219512196	0.5060240963855422	-1.2289156626506024	-0.5385996409335727	-8.512268102932376	-1.2040694195092758	4130.40293040293	1792.6739926739926	-2.1068702290076335	-7.236641221374046	0.04580152671755725	-0.2593703148425787	-0.22038980509745126	-0.27586206896551724	100.53187801758794	35.85113644360099	
1.7375815587486182E12	-8.585365853658537	0.5180722891566265	-1.180722891566265	-0.5409934171154996	-8.459605026929982	-1.177737881508079	4124.542124542124	1906.227106227106	-1.984732824427481	-7.541984732824427	-1.083969465648855	-0.2593703148425787	-0.22038980509745126	-0.27586206896551724	100.53187801758794	35.85113644360099	
1.7375815587535967E12	-8.512195121951219	0.5903614457831325	-1.108433734939759	-0.6032315978456014	-8.414123279473369	-1.1035308198683422	4123.076923076923	1947.9853479853477	-2.1526717557251906	-6.6106870229007635	-1.83206106870229	-0.27136431784107945	-0.22488755622188905	-0.2818590704647676	100.53187801758794	35.85113644360099	
1.737581558758575E12	-8.487804878048781	0.6265060240963856	-1.0602409638554218	-0.6630760023937762	-8.392579293836025	-1.1154997007779772	4124.542124542124	1970.6959706959706	-2.381679389312977	-6.244274809160305	-2.687022900763359	-0.27136431784107945	-0.22488755622188905	-0.2818590704647676	100.53713677721555	35.85113644360099	
1.7375815587635535E12	-8.426829268292684	0.6506024096385542	-1.036144578313253	-0.6918013165769	-8.313584679832436	-1.0388988629563136	4121.611721611721	1975.091575091575	-2.5343511450381677	-6.961832061068702	-2.916030534351145	-0.2593703148425787	-0.22038980509745126	-0.2698650674662669	100.53713677721555	35.85113644360099	
1.737581558768532E12	-8.378048780487806	0.6385542168674699	-1.0	-0.6750448833034112	-8.282465589467385	-0.9646918013165768	4112.820512820513	1969.230769230769	-2.198473282442748	-7.66412213740458	-3.3740458015267176	-0.2593703148425787	-0.22038980509745126	-0.2698650674662669	100.53713677721555	35.85113644360099	
1.7375815587735103E12	-8.353658536585366	0.6265060240963856	-0.9879518072289157	-0.6798324356672651	-8.24655894673848	-0.926391382405745	4112.820512820513	1967.032967032967	-1.9541984732824427	-8.259541984732824	-3.0839694656488548	-0.2638680659670165	-0.22038980509745126	-0.280359820089955	100.53450739621186	35.85113644360099	
1.7375815587784888E12	-8.304878048780488	0.5783132530120483	-1.0602409638554218	-0.6439257929383603	-8.189108318372233	-1.0508677438659486	4106.959706959707	1960.4395604395604	-2.183206106870229	-9.053435114503817	-2.748091603053435	-0.2638680659670165	-0.22038980509745126	-0.280359820089955	100.53450739621186	35.85113644360099	
1.7375815587834673E12	-8.26829268292683	0.5542168674698795	-1.0963855421686748	-0.6104129263913823	-8.193895870736085	-1.0915619389587072	4102.5641025641025	1946.5201465201465	-1.984732824427481	-9.755725190839694	-2.33587786259542	-0.2578710644677661	-0.22488755622188905	-0.272863568215892	100.53450739621186	35.85113644360099	
1.7375815587884456E12	-8.25609756097561	0.5180722891566265	-1.1204819277108435	-0.5481747456612807	-8.18192698982645	-1.144225014961101	4087.912087912088	1927.4725274725274	-1.7862595419847327	-10.442748091603052	-1.66412213740458	-0.2578710644677661	-0.22488755622188905	-0.272863568215892	100.53450739621186	35.85113644360099	
1.737581558793424E12	-8.26829268292683	0.4819277108433735	-1.1927710843373494	-0.5338120885697187	-8.165170556552962	-1.187312986235787	4104.029304029304	1937.7289377289376	-1.450381679389313	-12.351145038167939	-1.0381679389312977	-0.24437781109445278	-0.22038980509745126	-0.29235382308845576	100.53450739621186	35.85113644360099	
1.7375815587984026E12	-8.304878048780488	0.4096385542168675	-1.1566265060240966	-0.4907241172950329	-8.222621184919209	-1.1825254338719329	4105.494505494506	1943.5897435897434	-1.9083969465648853	-13.007633587786259	-0.061068702290076333	-0.24437781109445278	-0.22038980509745126	-0.29235382308845576	100.53450739621186	35.85113644360099	
1.7375815588033809E12	-8.390243902439025	0.4096385542168675	-1.1686746987951808	-0.48114901256732495	-8.315978456014362	-1.16098144823459	4120.14652014652	1958.2417582417581	-2.5038167938931295	-12.381679389312977	1.1603053435114503	-0.272863568215892	-0.22188905547226387	-0.2863568215892054	100.53450739621186	35.85113644360099	
1.7375815588083594E12	-8.52439024390244	0.45783132530120485	-1.1566265060240966	-0.5242369838420108	-8.452423698384202	-1.163375224416517	4114.285714285714	1958.974358974359	-3.6946564885496183	-11.893129770992365	1.618320610687023	-0.272863568215892	-0.22188905547226387	-0.2863568215892054	100.53450739621186	35.85113644360099	
1.737581558813338E12	-8.695121951219512	0.5180722891566265	-1.144578313253012	-0.6032315978456014	-8.646319569120287	-1.16098144823459	4126.007326007326	1775.8241758241757	-4.351145038167939	-11.389312977099236	2.16793893129771	-0.26686656671664166	-0.22938530734632684	-0.27586206896551724	100.53450739621186	35.85113644360099	
1.7375815588183162E12	-8.853658536585366	0.6144578313253012	-1.0843373493975905	-0.6678635547576302	-8.768402154398563	-1.0508677438659486	4120.14652014652	1889.3772893772893	-4.381679389312977	-10.732824427480915	1.984732824427481	-0.26686656671664166	-0.22938530734632684	-0.27586206896551724	100.53976616059897	35.85113644360099	
1.7375815588232947E12	-8.951219512195122	0.674698795180723	-1.0120481927710845	-0.7205266307600239	-8.885697187312987	-0.9790544584081388	4124.542124542124	1946.5201465201465	-4.763358778625954	-11.022900763358779	2.259541984732824	-0.27586206896551724	-0.22638680659670163	-0.280359820089955	100.53976616059897	35.85113644360099	
1.7375815588282732E12	-9.0	0.6506024096385542	-0.963855421686747	-0.7205266307600239	-8.933572710951525	-0.9814482345900658	4142.124542124542	1797.069597069597	-4.366412213740458	-11.526717557251908	1.9236641221374045	-0.27586206896551724	-0.22638680659670163	-0.280359820089955	100.53976616059897	35.85113644360099	
1.7375815588332515E12	-9.036585365853659	0.6987951807228916	-0.9156626506024097	-0.7324955116696589	-8.923997606223818	-0.8617594254937163	4134.798534798534	1723.0769230769229	-3.9541984732824424	-11.129770992366412	1.129770992366412	-0.26686656671664166	-0.2098950524737631	-0.280359820089955	100.52924864134376	35.85113644360099	
1.73758155883823E12	-9.0	0.6987951807228916	-0.9156626506024097	-0.7827648114901257	-8.93836026331538	-0.9503291442250149	4139.194139194139	1698.9010989010987	-3.6946564885496183	-11.022900763358779	0.7175572519083969	-0.26686656671664166	-0.2098950524737631	-0.280359820089955	100.52924864134376	35.85113644360099	
1.7375815588432085E12	-9.012195121951219	0.6987951807228916	-0.963855421686747	-0.701376421304608	-8.91442250149611	-0.943147815679234	4099.6336996336995	1836.6300366300366	-3.5114503816793894	-10.763358778625953	-0.0916030534351145	-0.27136431784107945	-0.22638680659670163	-0.2833583208395802	100.52924864134376	35.85113644360099	
1.7375815588481868E12	-9.036585365853659	0.6987951807228916	-0.9397590361445783	-0.7253141831238779	-8.947935368043089	-0.9790544584081388	4133.333333333333	1737.7289377289376	-3.877862595419847	-9.435114503816793	-1.114503816793893	-0.27136431784107945	-0.22638680659670163	-0.2833583208395802	100.53450739621186	35.85113644360099	
1.7375815588531653E12	-9.109756097560975	0.7228915662650602	-0.9397590361445783	-0.7564332734889287	-9.058049072411729	-0.9216038300418911	4126.007326007326	1684.249084249084	-4.793893129770992	-8.16793893129771	-2.259541984732824	-0.2653673163418291	-0.21589205397301348	-0.2788605697151424	100.53450739621186	35.85113644360099	
1.7375815588581438E12	-9.207317073170731	0.783132530120482	-0.9036144578313253	-0.8306403351286654	-9.170556552962298	-0.8809096349491322	4104.029304029304	1836.6300366300366	-5.145038167938931	-6.671755725190839	-3.2213740458015265	-0.2653673163418291	-0.21589205397301348	-0.2788605697151424	100.53450739621186	35.85113644360099	
1.737581558863122E12	-9.329268292682928	0.855421686746988	-0.8674698795180723	-0.8880909634949132	-9.273488928785158	-0.8737283064033513	4133.333333333333	1737.7289377289376	-5.862595419847328	-5.862595419847328	-4.244274809160305	-0.24887556221889054	-0.2383808095952024	-0.29535232383808097	100.53187801758794	35.85113644360099	
1.7375815588681006E12	-9.439024390243903	0.9518072289156627	-0.8433734939759037	-0.943147815679234	-9.369239976062238	-0.8593656493117894	4098.1684981684975	1852.0146520146518	-6.259541984732824	-4.885496183206107	-5.236641221374046	-0.24887556221889054	-0.2383808095952024	-0.29535232383808097	100.53187801758794	35.85113644360099	
1.737581558873079E12	-9.475609756097562	0.963855421686747	-0.8915662650602411	-0.9718731298623579	-9.393177737881508	-0.8809096349491322	4130.40293040293	1742.124542124542	-5.938931297709924	-4.290076335877862	-6.381679389312977	-0.2608695652173913	-0.21889055472263869	-0.2818590704647676	100.53187801758794	35.85113644360099	
1.7375815588780574E12	-9.487804878048781	0.9759036144578314	-0.9156626506024097	-1.0388988629563136	-9.400359066427288	-0.935966487133453	4131.868131868132	1693.7728937728937	-5.938931297709924	-3.9389312977099236	-6.809160305343511	-0.2608695652173913	-0.21889055472263869	-0.2818590704647676	100.53187801758794	35.85113644360099	
1.737581558883036E12	-9.463414634146341	0.9518072289156627	-0.8915662650602411	-1.0005984440454818	-9.352483542788748	-0.9239976062238181	4123.076923076923	1860.8058608058607	-5.465648854961832	-3.236641221374046	-7.587786259541985	-0.2638680659670165	-0.2143928035982009	-0.2788605697151424	100.53187801758794	35.85113644360099	
1.7375815588880142E12	-9.402439024390244	0.9036144578313253	-0.8915662650602411	-0.8737283064033513	-9.268701376421305	-0.9287851585876721	4127.472527472527	1739.194139194139	-5.267175572519084	-3.4045801526717554	-7.480916030534351	-0.2638680659670165	-0.2143928035982009	-0.2788605697151424	100.53187801758794	35.85113644360099	
1.7375815588929927E12	-9.353658536585366	0.8072289156626506	-0.9518072289156627	-0.8043087971274686	-9.220825852782765	-0.9216038300418911	4092.307692307692	1846.8864468864467	-5.114503816793893	-3.450381679389313	-7.480916030534351	-0.26836581709145424	-0.22638680659670163	-0.27436281859070466	100.53450739621186	35.85113644360099	
1.7375815588979712E12	-9.317073170731708	0.6987951807228916	-0.963855421686747	-0.6918013165769	-9.17773788150808	-0.940754039497307	4131.868131868132	1736.263736263736	-4.961832061068702	-2.8854961832061066	-6.99236641221374	-0.26836581709145424	-0.22638680659670163	-0.27436281859070466	100.53450739621186	35.85113644360099	
1.7375815589029495E12	-9.304878048780488	0.6024096385542169	-0.9036144578313253	-0.6295631358467983	-9.220825852782765	-0.8713345302214243	4126.007326007326	1683.5164835164835	-5.206106870229007	-1.7404580152671756	-6.8396946564885495	-0.26686656671664166	-0.22338830584707645	-0.2848575712143928	100.53450739621186	35.85113644360099	
1.737581558907928E12	-9.341463414634147	0.5421686746987953	-0.8433734939759037	-0.6056253740275284	-9.249551166965889	-0.8497905445840813	4131.868131868132	1669.5970695970695	-6.1679389312977095	-1.129770992366412	-6.076335877862595	-0.26686656671664166	-0.22338830584707645	-0.2848575712143928	100.53187801758794	35.85113644360099	
1.7375815589129065E12	-9.439024390243903	0.5662650602409639	-0.7951807228915663	-0.6008378216636744	-9.364452423698385	-0.7875523638539796	4102.5641025641025	1825.6410256410254	-7.251908396946565	-0.42748091603053434	-5.801526717557252	-0.2608695652173913	-0.21889055472263869	-0.27136431784107945	100.53187801758794	35.85113644360099	
1.7375815589178848E12	-9.5	0.5783132530120483	-0.7590361445783133	-0.6343506882106523	-9.412327947336923	-0.7253141831238779	4124.542124542124	1919.4139194139193	-7.465648854961832	0.3053435114503817	-5.541984732824427	-0.2608695652173913	-0.21889055472263869	-0.27136431784107945	100.53187801758794	35.85113644360099	
1.7375815589228633E12	-9.548780487804878	0.6144578313253012	-0.6867469879518072	-0.6439257929383603	-9.436265709156194	-0.6391382405745063	4123.076923076923	1953.8461538461538	-7.557251908396946	0.6564885496183206	-5.374045801526718	-0.2653673163418291	-0.22188905547226387	-0.2818590704647676	100.53187801758794	35.85113644360099	
1.7375815589278418E12	-9.512195121951219	0.5903614457831325	-0.6144578313253012	-0.5792938360263316	-9.309395571514063	-0.4452423698384201	4099.6336996336995	1936.9963369963368	-6.106870229007633	0.7022900763358778	-4.0	-0.24287856071964017	-0.24737631184407796	-0.29985007496251875	100.53187801758794	35.85113644360099	
1.7375815589377986E12	-9.341463414634147	0.49397590361445787	-0.43373493975903615	-0.5170556552962298	-9.17773788150808	-0.3686415320167564	4104.029304029304	1951.6483516483515	-5.572519083969466	0.8702290076335878	-3.4351145038167936	-0.24287856071964017	-0.24737631184407796	-0.29985007496251875	100.53187801758794	35.85113644360099	
1.737581558942777E12	-9.25609756097561	0.46987951807228917	-0.3493975903614458	-0.5098743267504489	-9.141831238779174	-0.3518850987432675	4131.868131868132	1780.9523809523807	-5.2824427480916025	1.450381679389313	-2.4580152671755724	-0.2593703148425787	-0.22938530734632684	-0.2788605697151424	100.53450739621186	35.85113644360099	
1.7375815589477554E12	-9.207317073170731	0.46987951807228917	-0.3614457831325301	-0.5146618791143028	-9.096349491322561	-0.3590664272890485	4126.007326007326	1701.8315018315018	-6.122137404580153	1.984732824427481	-2.030534351145038	-0.2653673163418291	-0.22488755622188905	-0.2818590704647676	100.53450739621186	35.85113644360099	
1.737581558952734E12	-9.207317073170731	0.5180722891566265	-0.3373493975903615	-0.5409934171154996	-9.125074805505685	-0.2992220227408737	4115.750915750916	1857.142857142857	-6.091603053435114	2.213740458015267	-2.030534351145038	-0.2653673163418291	-0.22488755622188905	-0.2818590704647676	100.53450739621186	35.85113644360099	
1.7375815589577124E12	-9.24390243902439	0.5662650602409639	-0.3493975903614458	-0.5960502692998204	-9.165769000598443	-0.2800718132854578	4128.937728937729	1739.194139194139	-5.404580152671755	2.6564885496183206	-2.16793893129771	-0.26836581709145424	-0.22038980509745126	-0.2818590704647676	100.53450739621186	35.85113644360099	
1.7375815589626907E12	-9.25609756097561	0.6024096385542169	-0.30120481927710846	-0.6511071214841412	-9.192100538599641	-0.26331538001196886	4128.937728937729	1690.8424908424906	-4.229007633587786	4.0	-2.015267175572519	-0.26836581709145424	-0.22038980509745126	-0.2818590704647676	100.53450739621186	35.85113644360099	
1.7375815589676692E12	-9.28048780487805	0.6867469879518072	-0.28915662650602414	-0.706163973668462	-9.20885697187313	-0.26331538001196886	4127.472527472527	1670.3296703296703	-2.8396946564885495	4.381679389312977	-2.564885496183206	-0.26686656671664166	-0.2098950524737631	-0.2788605697151424	100.53450739621186	35.85113644360099	
1.7375815589726477E12	-9.28048780487805	0.6867469879518072	-0.27710843373493976	-0.7660083782166367	-9.194494314781569	-0.20347097546379414	4114.285714285714	1838.095238095238	-1.4351145038167938	6.412213740458015	-2.9770992366412212	-0.26686656671664166	-0.2098950524737631	-0.2788605697151424	100.53187801758794	35.85113644360099	
1.737581558977626E12	-9.26829268292683	0.7228915662650602	-0.2530120481927711	-0.7348892878515858	-9.16098144823459	-0.21783363255535607	4121.611721611721	1919.4139194139193	-0.549618320610687	6.946564885496183	-3.4045801526717554	-0.2623688155922039	-0.23088455772113942	-0.2788605697151424	100.53187801758794	35.85113644360099	
1.7375815589826045E12	-9.219512195121952	0.710843373493976	-0.20481927710843376	-0.7444643925792939	-9.086774386594854	-0.2106523040095751	4121.611721611721	1953.113553113553	0.2900763358778626	7.541984732824427	-4.030534351145038	-0.2623688155922039	-0.23088455772113942	-0.2788605697151424	100.53187801758794	35.85113644360099	
1.737581558987583E12	-9.182926829268293	0.6867469879518072	-0.21686746987951808	-0.7277079593058049	-9.050867743865949	-0.17235188509874327	4111.355311355311	1956.0439560439559	0.6564885496183206	8.122137404580153	-4.290076335877862	-0.2593703148425787	-0.2083958020989505	-0.2848575712143928	100.52924864134376	35.85113644360099	
1.7375815589925613E12	-9.158536585365853	0.6867469879518072	-0.20481927710843376	-0.7277079593058049	-9.046080191502094	-0.1627767803710353	4112.820512820513	1961.172161172161	1.8015267175572518	8.106870229007633	-4.076335877862595	-0.2593703148425787	-0.2083958020989505	-0.2848575712143928	100.52924864134376	35.85113644360099	
1.7375815589975398E12	-9.121951219512196	0.746987951807229	-0.1927710843373494	-0.8162776780371035	-9.012567324955116	-0.15798922800718132	4111.355311355311	1958.974358974359	2.5038167938931295	8.15267175572519	-3.6030534351145036	-0.2698650674662669	-0.23088455772113942	-0.2848575712143928	100.52924864134376	35.85113644360099	
1.7375815590025183E12	-9.109756097560975	0.9156626506024097	-0.30120481927710846	-0.947935368043088	-9.002992220227409	-0.3040095751047277	4112.820512820513	1962.6373626373625	3.068702290076336	8.442748091603054	-2.916030534351145	-0.2698650674662669	-0.23088455772113942	-0.2848575712143928	100.53450739621186	35.85113644360099	
1.7375815590074966E12	-9.109756097560975	1.0120481927710845	-0.4096385542168675	-1.0365050867743866	-8.96947935368043	-0.4189108318372232	4120.14652014652	1967.032967032967	2.8396946564885495	9.374045801526718	-2.7022900763358777	-0.25487256371814093	-0.22938530734632684	-0.28785607196401797	100.53450739621186	35.85113644360099	
1.737581559012475E12	-9.109756097560975	1.0481927710843375	-0.45783132530120485	-1.1059245960502693	-8.979054458408138	-0.4189108318372232	4102.5641025641025	1949.4505494505493	2.595419847328244	8.473282442748092	-1.7709923664122136	-0.25487256371814093	-0.22938530734632684	-0.28785607196401797	100.53450739621186	35.85113644360099	
1.7375815590174536E12	-9.121951219512196	1.036144578313253	-0.42168674698795183	-1.0915619389587072	-9.000598444045481	-0.3949730700179533	4108.424908424908	1948.7179487179485	2.7938931297709924	8.793893129770993	-1.0381679389312977	-0.2608695652173913	-0.22788605697151423	-0.2788605697151424	100.53187801758794	35.85113644360099	
1.737581559022432E12	-9.170731707317074	1.0481927710843375	-0.3734939759036145	-1.1035308198683422	-9.070017953321365	-0.3494913225613405	4102.5641025641025	1942.124542124542	2.717557251908397	8.732824427480915	-0.04580152671755725	-0.2608695652173913	-0.22788605697151423	-0.2788605697151424	100.53187801758794	35.85113644360099	
1.7375815590274104E12	-9.24390243902439	0.9879518072289157	-0.3734939759036145	-1.0053859964093357	-9.125074805505685	-0.34709754637941354	4104.029304029304	1944.3223443223442	3.068702290076336	8.045801526717558	0.6870229007633587	-0.27136431784107945	-0.22638680659670163	-0.2863568215892054	100.53187801758794	35.85113644360099	
1.737581559032389E12	-9.292682926829269	0.9518072289156627	-0.4096385542168675	-0.9718731298623579	-9.22561340514662	-0.4404548174745661	4106.959706959707	1950.18315018315	3.0229007633587783	6.99236641221374	1.5419847328244274	-0.27136431784107945	-0.22638680659670163	-0.2863568215892054	100.53187801758794	35.85113644360099	
1.7375815590373672E12	-9.426829268292684	0.8072289156626506	-0.49397590361445787	-0.8378216636744464	-9.333333333333334	-0.5050867743865949	4105.494505494506	1948.7179487179485	2.7938931297709924	4.7328244274809155	2.5038167938931295	-0.26686656671664166	-0.22338830584707645	-0.28785607196401797	100.53187801758794	35.85113644360099	
1.7375815590423457E12	-9.560975609756097	0.674698795180723	-0.5903614457831325	-0.713345302214243	-9.496110113704368	-0.6008378216636744	4115.750915750916	1959.7069597069597	1.5267175572519083	2.8091603053435112	2.8702290076335877	-0.26686656671664166	-0.22338830584707645	-0.28785607196401797	100.53187801758794	35.85113644360099	
1.7375815590473242E12	-9.707317073170731	0.5662650602409639	-0.6385542168674699	-0.5697187312986236	-9.668461998803112	-0.6726511071214841	4108.424908424908	1953.113553113553	0.6717557251908397	2.213740458015267	3.0839694656488548	-0.2638680659670165	-0.21139430284857572	-0.2788605697151424	100.53450739621186	35.85113644360099	
1.7375815590523025E12	-9.865853658536587	0.3614457831325301	-0.6626506024096386	-0.3686415320167564	-9.845601436265708	-0.6846199880311191	4120.14652014652	1963.3699633699632	-0.5038167938931297	0.6717557251908397	2.900763358778626	-0.2638680659670165	-0.21139430284857572	-0.2788605697151424	100.53450739621186	35.85113644360099	
1.737581559057281E12	-10.012195121951219	0.20481927710843376	-0.6265060240963856	-0.17235188509874327	-9.97247157390784	-0.6295631358467983	4112.820512820513	1964.8351648351647	-0.8091603053435115	-1.0534351145038168	2.8244274809160306	-0.2698650674662669	-0.21739130434782608	-0.2833583208395802	100.53450739621186	35.85113644360099	
1.7375815590622595E12	-10.109756097560975	0.0963855421686747	-0.5903614457831325	-0.09814482345900657	-10.049072411729503	-0.5864751645721125	4120.14652014652	1967.7655677655675	-0.7022900763358778	-2.0	2.900763358778626	-0.2698650674662669	-0.21739130434782608	-0.2833583208395802	100.53187801758794	35.85113644360099	
1.7375815590672378E12	-10.207317073170731	0.060240963855421686	-0.5180722891566265	-0.1364452423698384	-10.149611011370437	-0.5146618791143028	4127.472527472527	1784.6153846153845	-0.2748091603053435	-2.351145038167939	2.778625954198473	-0.2698650674662669	-0.21889055472263869	-0.2863568215892054	100.53187801758794	35.85113644360099	
1.7375815590722163E12	-10.28048780487805	0.08433734939759037	-0.44578313253012053	-0.0933572710951526	-10.209455415918612	-0.4021543985637343	4108.424908424908	1880.5860805860805	-0.10687022900763359	-2.381679389312977	2.8244274809160306	-0.2698650674662669	-0.21889055472263869	-0.2863568215892054	100.53187801758794	35.85113644360099	
1.7375815590771946E12	-10.304878048780488	0.0963855421686747	-0.3132530120481928	-0.15080789946140036	-10.230999401555954	-0.31119090365050867	4123.076923076923	1937.7289377289376	-0.2748091603053435	-1.8015267175572518	2.427480916030534	-0.2623688155922039	-0.22788605697151423	-0.27436281859070466	100.53713677721555	35.85113644360099	
1.737581559082173E12	-10.28048780487805	0.13253012048192772	-0.22891566265060243	-0.19150209455415917	-10.199880311190903	-0.19389587073608616	4127.472527472527	1772.161172161172	-0.38167938931297707	-0.5038167938931297	2.1068702290076335	-0.2623688155922039	-0.22788605697151423	-0.27436281859070466	100.53713677721555	35.85113644360099	
1.7375815590871516E12	-10.25609756097561	0.1927710843373494	-0.0963855421686747	-0.22980251346499103	-10.161579892280072	-0.040694195092758824	4130.40293040293	1709.8901098901097	-0.04580152671755725	1.1908396946564885	1.7709923664122136	-0.2563718140929535	-0.23088455772113942	-0.280359820089955	100.53713677721555	35.85113644360099	
1.73758155909213E12	-10.207317073170731	0.21686746987951808	0.13253012048192772	-0.23219628964691802	-10.140035906642728	0.1891083183722322	4123.076923076923	1867.3992673992673	0.732824427480916	3.450381679389313	1.1755725190839694	-0.2563718140929535	-0.23088455772113942	-0.280359820089955	100.53450739621186	35.85113644360099	
1.7375815590971084E12	-10.219512195121952	0.20481927710843376	0.3253012048192771	-0.24895272292040693	-10.14721723518851	0.3901855176540993	4130.40293040293	1748.7179487179485	0.8549618320610687	6.030534351145038	0.8244274809160305	-0.2638680659670165	-0.21139430284857572	-0.2833583208395802	100.53450739621186	35.85113644360099	
1.737581559102087E12	-10.219512195121952	0.24096385542168675	0.5060240963855422	-0.22980251346499103	-10.152004787552364	0.5577498503889886	4127.472527472527	1693.7728937728937	0.7480916030534351	8.625954198473282	0.04580152671755725	-0.2638680659670165	-0.21139430284857572	-0.2833583208395802	100.53450739621186	35.85113644360099	
1.7375815591070652E12	-10.25609756097561	0.24096385542168675	0.6385542168674699	-0.2872531418312388	-10.163973668461999	0.708557749850389	4130.40293040293	1677.6556776556774	1.4045801526717556	11.419847328244275	-0.8244274809160305	-0.26836581709145424	-0.22038980509745126	-0.272863568215892	100.53187801758794	35.85113644360099	
1.7375815591120437E12	-10.304878048780488	0.28915662650602414	0.7590361445783133	-0.33034111310592457	-10.235786953919808	0.7564332734889287	4126.007326007326	1659.3406593406592	1.9236641221374045	13.465648854961831	-1.099236641221374	-0.26836581709145424	-0.22038980509745126	-0.272863568215892	100.53187801758794	35.85113644360099	
1.7375815591170222E12	-10.304878048780488	0.3253012048192771	0.8072289156626506	-0.3758228605625374	-10.259724715739079	0.8833034111310593	4133.333333333333	1665.201465201465	2.6259541984732824	14.702290076335878	-1.5114503816793892	-0.26836581709145424	-0.22038980509745126	-0.280359820089955	100.53187801758794	35.85113644360099	
1.7375815591220005E12	-10.378048780487806	0.3373493975903615	0.855421686746988	-0.3734290843806104	-10.333931777378815	0.931178934769599	4127.472527472527	1659.3406593406592	3.3587786259541983	15.541984732824426	-1.450381679389313	-0.26836581709145424	-0.22038980509745126	-0.280359820089955	100.53187801758794	35.85113644360099	
1.737581559126979E12	-10.463414634146341	0.3493975903614458	0.963855421686747	-0.4021543985637343	-10.417713943746259	1.0077797725912627	4133.333333333333	1664.4688644688645	4.442748091603053	15.236641221374045	-0.5343511450381679	-0.26836581709145424	-0.21589205397301348	-0.2848575712143928	100.53187801758794	35.85113644360099	
1.7375815591319575E12	-10.548780487804878	0.3614457831325301	1.0481927710843375	-0.45242369838420105	-10.484739676840215	1.1131059245960502	4131.868131868132	1661.5384615384614	5.312977099236641	15.557251908396946	0.41221374045801523	-0.26836581709145424	-0.21589205397301348	-0.2848575712143928	100.53187801758794	35.85113644360099	
1.7375815591369358E12	-10.646341463414634	0.46987951807228917	1.0240963855421688	-0.5816876122082585	-10.625972471573908	0.9838420107719928	4133.333333333333	1665.201465201465	5.0534351145038165	17.46564885496183	1.9083969465648853	-0.2578710644677661	-0.22488755622188905	-0.2863568215892054	100.52661926747935	35.85113644360099	
1.7375815591419143E12	-10.890243902439025	0.4819277108433735	0.8072289156626506	-0.5840813883901855	-10.92519449431478	0.7301017354877318	4104.029304029304	1828.5714285714284	3.114503816793893	16.030534351145036	4.99236641221374	-0.2578710644677661	-0.22488755622188905	-0.2863568215892054	100.52661926747935	35.85113644360099	
1.7375815591468928E12	-11.317073170731708	0.39759036144578314	0.5542168674698795	-0.473967684021544	-11.368043087971275	0.3901855176540993	4123.076923076923	1916.4835164835163	1.2061068702290076	10.198473282442748	8.65648854961832	-0.25037481259370314	-0.23088455772113942	-0.2983508245877061	100.52661926747935	35.85113644360099	
1.737581559151871E12	-11.829268292682928	0.39759036144578314	0.1566265060240964	-0.476361460203471	-11.95930580490724	-0.06223818073010173	4120.14652014652	1947.2527472527472	-1.2213740458015268	3.3740458015267176	13.603053435114504	-0.25037481259370314	-0.23088455772113942	-0.2983508245877061	100.52661926747935	35.85113644360099	
1.7375815591568496E12	-12.365853658536587	0.3253012048192771	-0.42168674698795183	-0.45242369838420105	-12.488330341113105	-0.687013764213046	4128.937728937729	1777.2893772893772	-5.480916030534351	-3.679389312977099	19.34351145038168	-0.2638680659670165	-0.2338830584707646	-0.2833583208395802	100.52661926747935	35.85113644360099	
1.7375815591618281E12	-12.951219512195122	0.18072289156626506	-0.963855421686747	-0.2800718132854578	-13.079593058049072	-1.2447636146020347	4130.40293040293	1712.8205128205127	-10.091603053435113	-15.206106870229007	26.198473282442748	-0.2638680659670165	-0.2338830584707646	-0.2833583208395802	100.52661926747935	35.85113644360099	
1.7375815591668064E12	-13.52439024390244	-0.07228915662650603	-1.4337349397590362	0.0047875523638539795	-13.673249551166965	-1.5942549371633752	4121.611721611721	1867.3992673992673	-12.580152671755725	-29.63358778625954	33.862595419847324	-0.2623688155922039	-0.21889055472263869	-0.2833583208395802	100.52924864134376	35.85113644360099	
1.737581559171785E12	-14.02439024390244	-0.3493975903614458	-1.8554216867469882	0.3375224416517056	-14.070616397366846	-1.9557151406343507	4124.542124542124	1936.9963369963368	-10.213740458015266	-43.282442748091604	40.58015267175573	-0.2623688155922039	-0.21889055472263869	-0.2833583208395802	100.52924864134376	35.85113644360099	
1.7375815591767634E12	-14.182926829268293	-0.6626506024096386	-2.204819277108434	0.701376421304608	-14.075403949730699	-2.1328545780969477	4128.937728937729	1772.8937728937728	-2.931297709923664	-51.57251908396946	44.12213740458015	-0.2608695652173913	-0.21889055472263869	-0.27436281859070466	100.52924864134376	35.85113644360099	
1.7375815591817417E12	-13.914634146341465	-0.7590361445783133	-1.9879518072289157	0.7851585876720526	-13.65409934171155	-1.5990424895272293	4134.798534798534	1712.087912087912	9.297709923664122	-49.64885496183206	42.13740458015267	-0.2608695652173913	-0.21889055472263869	-0.27436281859070466	100.52661926747935	35.85113644360099	
1.7375815591867202E12	-13.25609756097561	-0.710843373493976	-1.313253012048193	0.6511071214841412	-12.852184320766009	-0.8090963494913226	4126.007326007326	1673.260073260073	21.450381679389313	-44.10687022900763	39.93893129770992	-0.272863568215892	-0.22038980509745126	-0.2863568215892054	100.52661926747935	35.85113644360099	
1.7375815591916987E12	-12.451219512195122	-0.5542168674698795	-0.45783132530120485	0.3877917414721723	-12.026331538001196	0.047875523638539794	4133.333333333333	1670.3296703296703	30.0	-43.038167938931295	38.29007633587786	-0.272863568215892	-0.22038980509745126	-0.2863568215892054	100.52661926747935	35.85113644360099	
1.737581559196677E12	-11.853658536585366	-0.27710843373493976	0.060240963855421686	0.17713943746259725	-11.557151406343507	0.24895272292040693	4126.007326007326	1655.6776556776556	34.45801526717557	-42.167938931297705	37.17557251908397	-0.272863568215892	-0.2128935532233883	-0.2833583208395802	100.53450739621186	35.85113644360099	
1.7375815592016555E12	-11.487804878048781	-0.12048192771084337	0.1566265060240964	0.0718132854578097	-11.33213644524237	0.10771992818671454	4121.611721611721	1843.956043956044	35.23664122137404	-45.70992366412214	34.274809160305345	-0.272863568215892	-0.2128935532233883	-0.2833583208395802	100.53450739621186	35.85113644360099	
1.737581559206634E12	-11.28048780487805	0.13253012048192772	-0.060240963855421686	-0.22022740873728305	-11.128665469778575	-0.2513464991023339	4124.542124542124	1926.7399267399267	33.02290076335878	-46.2442748091603	29.206106870229007	-0.27586206896551724	-0.22188905547226387	-0.28785607196401797	100.53450739621186	35.85113644360099	
1.7375815592116123E12	-11.097560975609756	0.4096385542168675	-0.30120481927710846	-0.5122681029323758	-10.946738479952124	-0.5242369838420108	4101.098901098901	1936.263736263736	28.97709923664122	-44.80916030534351	24.045801526717558	-0.27586206896551724	-0.22188905547226387	-0.28785607196401797	100.53450739621186	35.85113644360099	
1.7375815592165908E12	-10.902439024390244	0.674698795180723	-0.3855421686746988	-0.6774386594853381	-10.700179533213644	-0.3782166367444644	4121.611721611721	1961.172161172161	26.27480916030534	-43.587786259541986	17.770992366412212	-0.25337331334332835	-0.22788605697151423	-0.2848575712143928	100.53450739621186	35.85113644360099	
1.7375815592215693E12	-10.597560975609756	0.9277108433734941	-0.21686746987951808	-0.9982046678635548	-10.350688210652304	-0.023937761819269897	4127.472527472527	1781.6849816849815	27.16030534351145	-39.77099236641221	11.709923664122137	-0.25337331334332835	-0.22788605697151423	-0.2848575712143928	100.53450739621186	35.85113644360099	
1.7375815592265476E12	-10.329268292682928	1.2289156626506024	0.07228915662650603	-1.3261520047875524	-10.05146618791143	0.26331538001196886	4140.65934065934	1723.8095238095236	30.9618320610687	-33.57251908396947	6.519083969465648	-0.27136431784107945	-0.22038980509745126	-0.2818590704647676	100.53187801758794	35.85113644360099	
1.7375815592315261E12	-10.182926829268293	1.5542168674698795	0.24096385542168675	-1.5008976660682225	-10.058647516457212	0.3016157989228007	4115.750915750916	1865.9340659340658	35.70992366412214	-24.65648854961832	2.519083969465649	-0.27136431784107945	-0.22038980509745126	-0.2818590704647676	100.53187801758794	35.85113644360099	
1.7375815592365046E12	-10.292682926829269	1.8795180722891567	0.18072289156626506	-1.8384201077199283	-10.166367444643926	0.2704967085577498	4133.333333333333	1749.4505494505493	39.23664122137404	-11.633587786259541	-2.198473282442748	-0.272863568215892	-0.21889055472263869	-0.2833583208395802	100.53187801758794	35.85113644360099	
