"sep=	"
Shimmer_952D_TimestampSync_Unix_CAL	Shimmer_952D_Accel_LN_X_CAL	Shimmer_952D_Accel_LN_Y_CAL	Shimmer_952D_Accel_LN_Z_CAL	Shimmer_952D_Accel_WR_X_CAL	Shimmer_952D_Accel_WR_Y_CAL	Shimmer_952D_Accel_WR_Z_CAL	Shimmer_952D_Gyro_X_CAL	Shimmer_952D_Gyro_Y_CAL	Shimmer_952D_Gyro_Z_CAL	Shimmer_952D_Mag_X_CAL	Shimmer_952D_Mag_Y_CAL	Shimmer_952D_Mag_Z_CAL	
ms	m/(s^2)	m/(s^2)	m/(s^2)	m/(s^2)	m/(s^2)	m/(s^2)	deg/s	deg/s	deg/s	local_flux	local_flux	local_flux	
1.7375801645571497E12	0.029153711134910606	9.734939759036145	-0.505732559274193	0.08846534331781798	9.744451109778044	-0.6992486901403216	-0.8623344919598384	-0.46380652642040743	0.4754093797510674	0.014992503748125937	-1.136431784107946	-0.047976011994003	
1.7375801645621462E12	0.016986253181910726	9.710843373493976	-0.4938060410826387	0.060809623449489814	9.713257348530293	-0.7021439900264537	-1.1239354451817425	-0.46380652642040743	0.6018140434422239	0.014992503748125937	-1.136431784107946	-0.047976011994003	
1.7375801645671426E12	-0.019154711034920602	9.831325301204819	-0.49416745072480706	0.060809623449489814	9.713257348530293	-0.7021439900264537	-1.4018642835664403	-0.5300646016233228	0.82961365526578	0.0	-1.136431784107946	-0.047976011994003	
1.7375801645721392E12	0.02867183161201952	9.771084337349398	-0.4575446069850846	0.031299448008830694	9.715656868626274	-0.7277899524045833	-1.3853885085488977	-0.4803710452211363	0.7134297216585131	0.0	-1.136431784107946	-0.047976011994003	
1.7375801645771357E12	0.10155610944929604	9.710843373493976	-0.5170567280621335	0.031299448008830694	9.715656868626274	-0.7277899524045833	-1.3537215958281836	-0.6957097896306111	0.609525585881148	0.0014992503748125937	-1.118440779610195	-0.05247376311844078	
1.737580164582132E12	0.04120069920718772	9.674698795180724	-0.5056120893934702	0.03574159109090392	9.67246550689862	-0.7189502242911545	-1.1688411173220878	-0.4969355640218651	0.49820055303571775	0.0014992503748125937	-1.118440779610195	-0.05247376311844078	
1.7375801645871287E12	0.005541614513247471	9.686746987951807	-0.554161451324747	0.03574159109090392	9.67246550689862	-0.7189502242911545	-0.9319827515782051	-0.7950969024349842	-0.2167324991473283	0.010494752623688156	-1.1349325337331333	-0.05397301349325337	
1.737580164592125E12	-0.006866783201197952	9.698795180722891	-0.5181409569886385	0.02410862050734005	9.650869826034793	-0.7146689006556861	-0.5512846841167788	-0.5300646016233228	-0.0017000416146138574	0.010494752623688156	-1.1349325337331333	-0.05397301349325337	
1.7375801645971216E12	0.0408392895650194	9.63855421686747	-0.46947112517663897	0.02410862050734005	9.650869826034793	-0.7146689006556861	0.21776694471923	-0.513500082822594	-0.3371845178648052	0.005997001499250375	-1.1349325337331333	-0.05547226386806597	
1.7375801646021182E12	0.1013151696878505	9.566265060240964	-0.4929627519175793	0.08215524473520537	9.658068386322734	-0.7301640843353261	0.3541521525589	-1.010435646844459	-0.19316318850868094	0.005997001499250375	-1.1349325337331333	-0.05547226386806597	
1.7375801646071145E12	0.029997000299970003	9.710843373493976	-0.5900614757801328	0.08215524473520537	9.658068386322734	-0.7301640843353261	0.6746303621319002	-0.7454033460327977	-0.08171921472141966	0.014992503748125937	-1.1334332833583207	-0.050974512743628186	
1.737580164612111E12	0.1374561339046818	9.72289156626506	-0.492601342275411	0.14976174479512225	9.660467906418715	-0.7617592951833635	0.5391970821263041	-0.9938711280437302	-0.3209333274849201	0.014992503748125937	-1.1334332833583207	-0.050974512743628186	
1.7375801646171077E12	0.13697425438179073	9.74698795180723	-0.4444133899863026	0.14976174479512225	9.660467906418715	-0.7617592951833635	0.7068656485824257	-0.7950969024349842	-0.24246072347993547	0.0074962518740629685	-1.12143928035982	-0.05547226386806597	
1.737580164622104E12	0.1621524594528499	9.72289156626506	-0.5525953428753511	0.14952391329363748	9.696460707858428	-0.7498677201091254	0.6300005962531809	-0.612887195626967	-0.21292333129053032	0.0074962518740629685	-1.12143928035982	-0.05547226386806597	
1.7375801646271006E12	0.15046688102274108	9.759036144578314	-0.5888567769729051	0.14952391329363748	9.696460707858428	-0.7498677201091254	1.0735788828678534	-0.6294517144276959	-0.16033851649437927	0.017991004497751123	-1.1349325337331333	-0.06746626686656672	
1.737580164632097E12	0.1379380134275729	9.74698795180723	-0.5407892945645194	0.09812514983103929	9.70125974805039	-0.7203452513672065	0.8425798032116157	-0.4306774888189498	-0.031334073075822026	0.017991004497751123	-1.1349325337331333	-0.06746626686656672	
1.7375801646370935E12	0.05348862704091037	9.795180722891567	-0.5295855956573017	0.09812514983103929	9.70125974805039	-0.7203452513672065	0.9954060075350538	-0.5300646016233228	-1.882394948709773E-5	0.008995502248875561	-1.1244377811094453	-0.05847076461769115	
1.73758016464209E12	0.029033241254187835	9.819277108433736	-0.4936855712019159	0.04913004618174416	9.694061187762447	-0.695532332181896	1.2395158302040454	-0.6625807520291536	0.09129599950356412	0.008995502248875561	-1.1244377811094453	-0.05847076461769115	
1.7375801646470864E12	-0.06758360308547458	9.879518072289157	-0.4705553541031439	0.04913004618174416	9.694061187762447	-0.695532332181896	1.5288188241196004	-0.71227430843134	0.2574744027413578	0.01199400299850075	-1.128935532233883	-0.043478260869565216	
1.737580164652083E12	0.0162634338975741	9.831325301204819	-0.42152411264897605	0.047091562912974005	9.725254949010196	-0.7090816098519334	1.4538929011086477	-0.9110485340400861	0.09309886310154683	0.01199400299850075	-1.128935532233883	-0.043478260869565216	
1.7375801646570796E12	0.11227792883362266	9.578313253012048	-0.38441938938636255	0.047091562912974005	9.725254949010196	-0.7090816098519334	1.057510342760126	-0.3644194136160344	-0.08487807386864246	0.01199400299850075	-1.143928035982009	-0.04947526236881559	
1.737580164662076E12	0.05409097644452422	9.783132530120483	-0.5898205360186872	0.05632903042021375	9.718056388722255	-0.7090612207797404	0.5515418779348197	-0.5797581580255093	-0.024019340189468597	0.01199400299850075	-1.143928035982009	-0.04947526236881559	
1.7375801646670725E12	-0.07854636223124675	9.759036144578314	-0.5790987166343606	0.05632903042021375	9.718056388722255	-0.7090612207797404	0.27578170375167343	-0.3975484512174921	-0.013086148521096401	0.014992503748125937	-1.1319340329835081	-0.04947526236881559	
1.7375801646720688E12	-0.11456685656735531	9.74698795180723	-0.5915071143488061	0.049636962011052756	9.696460707858428	-0.7208781236473261	0.18141889638689274	-0.28159681961239025	0.23483317907489315	0.014992503748125937	-1.1319340329835081	-0.04947526236881559	
1.7375801646770654E12	0.0162634338975741	9.783132530120483	-0.42152411264897605	0.049636962011052756	9.696460707858428	-0.7208781236473261	0.24323738862640312	-0.1822097068080172	0.17855822771190727	0.022488755622188904	-1.1379310344827587	-0.05547226386806597	
1.737580164682062E12	-0.006625843439752409	9.698795180722891	-0.5422349331331927	0.04760615567120395	9.689262147570485	-0.7348112477634309	0.2600255045600027	-0.3312903760145768	0.031140202498964188	0.022488755622188904	-1.1379310344827587	-0.05547226386806597	
1.7375801646870583E12	0.029274181015633376	9.698795180722891	-0.5177795473464701	0.04760615567120395	9.689262147570485	-0.7348112477634309	0.7203538163331881	-0.11595163160510186	-0.059883930409162	0.0	-1.1304347826086956	-0.04947526236881559	
1.737580164692055E12	0.017106723062633496	9.72289156626506	-0.5058530291549158	0.04732891460640118	9.691661667666466	-0.7209491945232922	1.3182090517676344	-0.11595163160510186	-0.12105831612024781	0.0	-1.1304347826086956	-0.04947526236881559	
1.7375801646970513E12	-0.019034241154197832	9.72289156626506	-0.5062144387970842	0.04732891460640118	9.691661667666466	-0.7209491945232922	1.6570773238666303	0.06625807520291535	-0.31722702678555703	0.0	-1.1304347826086956	-0.05697151424287856	
1.7375801647020479E12	-0.1629957486179093	9.807228915662652	-0.5678950177271429	-0.00573739788374324	9.718056388722255	-0.7235227155126069	1.8577620290634196	-0.28159681961239025	-0.4775811605532787	0.0	-1.1304347826086956	-0.05697151424287856	
1.7375801647070444E12	-0.04312821729875205	9.698795180722891	-0.5064553785585297	-0.00573739788374324	9.718056388722255	-0.7235227155126069	1.567156180506278	-0.3644194136160344	-0.5134740996323679	0.0074962518740629685	-1.1349325337331333	-0.050974512743628186	
1.7375801647120408E12	0.00433691570601976	9.734939759036145	-0.43369157060197594	0.0038282356449993223	9.684463107378523	-0.7399106275155549	1.5023997646196652	-0.3312903760145768	-0.16340678355916682	0.0074962518740629685	-1.1349325337331333	-0.050974512743628186	
1.7375801647170374E12	0.05348862704091037	9.698795180722891	-0.5295855956573017	0.0038282356449993223	9.684463107378523	-0.7399106275155549	1.469717496363582	-0.19877422560874605	0.042032905755139134	0.037481259370314844	-1.1409295352323838	-0.06446776611694152	
1.737580164722034E12	0.0533681571601876	9.674698795180724	-0.5175386075850246	0.06843190631005613	9.696460707858428	-0.7368378097291342	1.3956457900680024	-0.1656451880072884	-0.20776430542199203	0.037481259370314844	-1.1409295352323838	-0.06446776611694152	
1.7375801647270303E12	0.07770307306618736	9.674698795180724	-0.5413916439681333	0.06843190631005613	9.696460707858428	-0.7368378097291342	1.1952866747525177	-0.14908066920655955	-0.07996915978469987	0.013493253373313342	-1.128935532233883	-0.05847076461769115	
1.7375801647320269E12	0.07758260318546459	9.674698795180724	-0.5293446558958562	0.10353259865531758	9.6748650269946	-0.7597708103640315	0.961791684892768	0.14908066920655955	0.298626303985065	0.013493253373313342	-1.128935532233883	-0.05847076461769115	
1.7375801647370232E12	0.13854036283118676	9.710843373493976	-0.601024234925905	0.10353259865531758	9.6748650269946	-0.7597708103640315	0.7182850144873626	0.09938711280437303	0.14699625417338552	0.017991004497751123	-1.136431784107946	-0.05247376311844078	
1.7375801647420198E12	0.13841989295046397	9.710843373493976	-0.5889772468536278	0.12482489594404517	9.655668866226755	-0.7851247048235055	0.8403415819425144	0.016564518800728838	0.19248805383431697	0.017991004497751123	-1.136431784107946	-0.05247376311844078	
1.7375801647470164E12	0.10239939861435543	9.795180722891567	-0.6013856445680733	0.12482489594404517	9.655668866226755	-0.7851247048235055	0.9780081148552442	-0.1325161504058307	0.20837687588446094	0.0074962518740629685	-1.1199400299850075	-0.05247376311844078	
1.7375801647520127E12	0.09011147078063278	9.698795180722891	-0.5774121383042419	0.09272703299364378	9.667666466706658	-0.7968597328230662	1.0688695932050793	-0.3312903760145768	0.3105904497830548	0.0074962518740629685	-1.1199400299850075	-0.05247376311844078	
1.7375801647570093E12	0.12649337475890965	9.710843373493976	-0.6011447048066277	0.09272703299364378	9.667666466706658	-0.7968597328230662	1.009517200997274	-0.23190326321020371	0.12025539797552809	0.01649175412293853	-1.1274362818590704	-0.04497751124437781	
1.7375801647620059E12	0.12649337475890965	9.710843373493976	-0.6011447048066277	0.0951686629460921	9.696460707858428	-0.8034677893369376	1.0236681413552366	-0.3312903760145768	0.23655493032628322	0.005997001499250375	-1.1124437781109444	-0.043478260869565216	
1.7375801647670022E12	0.04204398837224711	9.698795180722891	-0.58994100589941	0.0951686629460921	9.696460707858428	-0.8034677893369376	0.8713038239232598	-0.46380652642040743	0.1590509920538106	0.005997001499250375	-1.1124437781109444	-0.043478260869565216	
1.7375801647719988E12	0.07806448270835567	9.710843373493976	-0.5775326081849647	0.1044042112211015	9.698860227954409	-0.8033514386532277	1.025903050383026	-0.7454033460327977	0.013064027547332544	0.017991004497751123	-1.143928035982009	-0.04497751124437781	
1.737580164776995E12	0.0779440128276329	9.734939759036145	-0.5654856201126875	0.1044042112211015	9.698860227954409	-0.8033514386532277	1.1966706793062458	-0.8282259400364419	-0.21836961515751868	0.017991004497751123	-1.143928035982009	-0.04497751124437781	
1.7375801647819917E12	0.06589702475535579	9.771084337349398	-0.5656060899934103	0.08800668923065261	9.718056388722255	-0.7917894268905978	1.3808663605202447	-1.0932582408481033	-0.2612149187932202	0.008995502248875561	-1.1409295352323838	-0.050974512743628186	
1.7375801647869883E12	0.04204398837224711	9.759036144578314	-0.58994100589941	0.08800668923065261	9.718056388722255	-0.7917894268905978	1.1522268940573621	-1.0932582408481033	-0.3681717947101625	0.008995502248875561	-1.1409295352323838	-0.050974512743628186	
1.7375801647919846E12	0.05421144632524699	9.686746987951807	-0.6018675240909643	0.07932322404496082	9.722855428914217	-0.8195099320401892	1.0496154915593179	-1.4079840980619511	-0.8267865219348652	0.0074962518740629685	-1.1334332833583207	-0.05247376311844078	
1.7375801647969812E12	0.030117470180692774	9.710843373493976	-0.6021084638524099	0.07932322404496082	9.722855428914217	-0.8195099320401892	0.9707379454865499	-1.5736292860692396	-0.5959997553931143	0.0074962518740629685	-1.1334332833583207	-0.05247376311844078	
1.7375801648019775E12	0.07818495258907844	9.63855421686747	-0.5895795962572418	0.10015905065302227	9.679664067186561	-0.8220402924663562	0.5139175872109341	-1.7724035116779857	-0.8557709722419483	0.035982008995502246	-1.154422788605697	-0.06296851574212893	
1.737580164806974E12	0.0779440128276329	9.66265060240964	-0.5654856201126875	0.10015905065302227	9.679664067186561	-0.8220402924663562	0.4822953897479305	-2.0043067748881893	-0.7563383622356257	0.035982008995502246	-1.154422788605697	-0.06296851574212893	
1.7375801648119707E12	0.08987053101918724	9.66265060240964	-0.5533181621596877	0.10458967834171345	9.694061187762447	-0.8126247946838259	0.4824432796026792	-2.020871293688918	-0.771127347710493	0.005997001499250375	-1.128935532233883	-0.05847076461769115	
1.737580164816967E12	0.05421144632524699	9.807228915662652	-0.6018675240909643	0.10458967834171345	9.694061187762447	-0.8126247946838259	0.9724111052671517	-2.2196455192976643	-0.7633157334532911	0.005997001499250375	-1.128935532233883	-0.05847076461769115	
1.7375801648219636E12	0.0662584343975241	9.783132530120483	-0.6017470542102417	0.07642224456350086	9.684463107378523	-0.7899343990757356	0.9401625698513787	-2.037435812489647	-0.6012493281700217	0.0	-1.1244377811094453	-0.04947526236881559	
1.7375801648269602E12	0.04216445825296988	9.831325301204819	-0.6019879939716871	0.07642224456350086	9.684463107378523	-0.7899343990757356	1.001597012870257	-2.484677820109326	-0.619119357469796	0.0	-1.1244377811094453	-0.04947526236881559	
1.7375801648319565E12	0.114205446925187	9.674698795180724	-0.5771711985427963	0.1070803140186315	9.708458308338331	-0.8216831374211825	0.5229884376507377	-2.252774556899122	-0.23146244807530073	0.014992503748125937	-1.1349325337331333	-0.046476761619190406	
1.7375801648369531E12	0.17407897764440422	9.590361445783133	-0.5404278849223512	0.1070803140186315	9.708458308338331	-0.8216831374211825	0.3545787658002167	-2.352161669703495	-0.23582451264035487	0.014992503748125937	-1.1349325337331333	-0.046476761619190406	
1.7375801648419495E12	0.03047887982286109	9.66265060240964	-0.6382494280692412	0.09798362618005227	9.70365926814637	-0.8287425099264014	0.5988099803934619	-2.236210038098393	-0.1566488816126642	0.0	-1.1334332833583207	-0.06146926536731634	
1.737580164846946E12	0.06674031392041518	9.74698795180723	-0.6499350064993501	0.09798362618005227	9.70365926814637	-0.8287425099264014	0.3214577963418552	-2.2196455192976643	0.013485296901770357	0.0	-1.1334332833583207	-0.06146926536731634	
1.7375801648519426E12	-0.005782554274693012	9.771084337349398	-0.6265638496391325	0.06579830755797833	9.691661667666466	-0.8361047543423347	0.47487721620494383	-2.4018552261056816	-0.01452100793695794	-0.0014992503748125937	-1.1349325337331333	-0.050974512743628186	
1.737580164856939E12	0.07758260318546459	9.734939759036145	-0.5293446558958562	0.06579830755797833	9.691661667666466	-0.8361047543423347	0.6743572729952162	-2.4018552261056816	-0.054410301053017335	-0.0014992503748125937	-1.1349325337331333	-0.050974512743628186	
1.7375801648619355E12	0.06649937415896964	9.698795180722891	-0.6258410303547959	0.06825817021661487	9.629274145170966	-0.8436244461656168	0.5973194890013837	-1.9546132184860028	-0.007599742404832353	0.008995502248875561	-1.136431784107946	-0.047976011994003	
1.737580164866932E12	0.0662584343975241	9.578313253012048	-0.6017470542102417	0.06825817021661487	9.629274145170966	-0.8436244461656168	0.7024615802367145	-2.0871293688918335	0.19794611109118523	0.008995502248875561	-1.136431784107946	-0.047976011994003	
1.7375801648719285E12	0.07830542246980121	9.710843373493976	-0.6016265843295189	0.08215258152064854	9.658068386322734	-0.8455043647160299	0.5324433373111735	-2.1865164816962066	0.35444115402813514	0.010494752623688156	-1.1229385307346327	-0.047976011994003	
1.737580164876925E12	0.10264033837580097	9.55421686746988	-0.6254796207126275	0.08215258152064854	9.658068386322734	-0.8455043647160299	0.2393382663092078	-2.13682292529402	0.5684704594314419	0.010494752623688156	-1.1229385307346327	-0.047976011994003	
1.7375801648819214E12	0.0787873019926923	9.783132530120483	-0.6498145366186273	0.07795210840452076	9.64607078584283	-0.8664275911267307	0.22330947309722288	-2.269339075699851	0.6399562124829187	0.01649175412293853	-1.12143928035982	-0.050974512743628186	
1.737580164886918E12	0.054693325848138075	9.74698795180723	-0.6500554763800728	0.07795210840452076	9.64607078584283	-0.8664275911267307	0.6092769233479554	-2.054000331290376	0.3280503910850192	0.01649175412293853	-1.12143928035982	-0.050974512743628186	
1.7375801648919146E12	0.05409097644452422	9.650602409638555	-0.5898205360186872	0.05203843841785659	9.682063587282542	-0.8409519439875174	1.252897016000088	-1.838661586880901	0.2845709880463368	0.020989505247376312	-1.1499250374812593	-0.06896551724137931	
1.737580164896911E12	0.05397050656380145	9.710843373493976	-0.5777735479464101	0.05203843841785659	9.682063587282542	-0.8409519439875174	1.5866885104222368	-2.0705648500911047	0.5960800450657316	0.020989505247376312	-1.1499250374812593	-0.06896551724137931	
1.7375801649019075E12	0.006625843439752411	9.698795180722891	-0.662584343975241	0.035225774542289895	9.70125974805039	-0.8086328379689983	1.6331779118277632	-1.7889680304787146	0.5413206089541464	0.013493253373313342	-1.12143928035982	-0.05247376311844078	
1.7375801649069038E12	-0.005180204871079157	9.66265060240964	-0.686798790000518	0.035225774542289895	9.70125974805039	-0.8086328379689983	1.4854698881975708	-1.6895809176743415	-0.001812709496746943	0.013493253373313342	-1.12143928035982	-0.05247376311844078	
1.7375801649119004E12	-0.017950012227692894	9.759036144578314	-0.6146373314475782	0.017072768044564632	9.720455908818236	-0.8247700419510953	1.7621124331472413	-1.921484180884545	-0.10098297781754022	0.017991004497751123	-1.1199400299850075	-0.05697151424287856	
1.737580164916897E12	-0.06613796451680133	9.867469879518072	-0.6151192109704692	0.017072768044564632	9.720455908818236	-0.8247700419510953	1.4849015144677593	-1.8552261056816297	0.05502466348440374	0.017991004497751123	-1.1199400299850075	-0.05697151424287856	
1.7375801649218933E12	-0.01758860258552458	9.74698795180723	-0.6507782956644095	0.016749879911695242	9.720455908818236	-0.8086256353076258	1.5025223175482048	-1.5570647672685107	-0.17566207641313536	0.005997001499250375	-1.1304347826086956	-0.05547226386806597	
1.73758016492689E12	0.10167657933001881	9.518072289156628	-0.5291037161344107	0.016749879911695242	9.720455908818236	-0.8086256353076258	1.27550467112559	-1.6895809176743415	-0.44480095635683503	0.005997001499250375	-1.1304347826086956	-0.05547226386806597	
1.7375801649318865E12	-0.018070482108415664	9.734939759036145	-0.602590343375301	0.026860879216949247	9.727654469106177	-0.8522818361361459	1.6760882608670582	-1.838661586880901	-0.6869271586813054	0.008995502248875561	-1.12143928035982	-0.05247376311844078	
1.7375801649368828E12	-0.006023494036138554	9.74698795180723	-0.6024698734945783	0.026860879216949247	9.727654469106177	-0.8522818361361459	1.8159201457400278	-1.7061454364750703	-0.887573532655157	0.008995502248875561	-1.12143928035982	-0.05247376311844078	
1.7375801649418794E12	-0.06613796451680133	9.759036144578314	-0.6151192109704692	0.013096691804309238	9.739652069586082	-0.8569131121554157	2.0600332806503316	-1.8717906244823586	-0.7965899333332941	0.004497751124437781	-1.128935532233883	-0.05247376311844078	
1.7375801649468757E12	-0.006143963916861325	9.710843373493976	-0.5904228854223011	0.013096691804309238	9.739652069586082	-0.8569131121554157	1.9978042412596937	-2.252774556899122	-0.6992602668575898	0.004497751124437781	-1.128935532233883	-0.05247376311844078	
1.7375801649518723E12	-0.01770907246624735	9.674698795180724	-0.6387313075921324	0.015409537289536663	9.720455908818236	-0.8570819453082419	1.5265586924851453	-2.5343713765115123	-1.0479060019601687	0.0	-1.128935532233883	-0.047976011994003	
1.737580164956869E12	-0.00554161451324747	9.710843373493976	-0.6506578257836867	0.015409537289536663	9.720455908818236	-0.8570819453082419	1.4816745499133275	-2.7828391585224446	-1.1536724492193988	0.0	-1.128935532233883	-0.047976011994003	
1.7375801649618652E12	0.01867283151202952	9.72289156626506	-0.6624638740945182	0.013427736674157564	9.698860227954409	-0.8734653556478321	1.3893855127563397	-2.931919827729004	-1.1131301424027396	0.0	-1.1349325337331333	-0.05397301349325337	
1.7375801649668618E12	0.04288727753730651	9.698795180722891	-0.6742699224053498	0.013427736674157564	9.698860227954409	-0.8734653556478321	1.1583831208587902	-2.7000165645188003	-0.9837944748529939	0.0	-1.1349325337331333	-0.05397301349325337	
1.7375801649718582E12	0.054572855967415304	9.698795180722891	-0.6380084883077957	0.06636190604067799	9.641271745650869	-0.8642846784773177	1.4618585847008347	-3.064435978134835	-0.7034694961171692	0.0029985007496251873	-1.1379310344827587	-0.05547226386806597	
1.7375801649768547E12	0.042525867895138195	9.686746987951807	-0.6381289581885184	0.06636190604067799	9.641271745650869	-0.8642846784773177	2.016253924129304	-2.931919827729004	-1.0128349856715504	0.0029985007496251873	-1.1379310344827587	-0.05547226386806597	
1.7375801649818513E12	0.042766807656583736	9.650602409638555	-0.6622229343330727	0.09221793375783593	9.662867426514696	-0.8868782121412194	2.379299722217821	-2.6503230081166143	-0.5639691589950077	0.01199400299850075	-1.1484257871064467	-0.06746626686656672	
1.7375801649868477E12	0.06722219344330627	9.72289156626506	-0.6981229587884585	0.09221793375783593	9.662867426514696	-0.8868782121412194	2.332948273943108	-2.84909723372536	-0.5230050359647246	0.01199400299850075	-1.1484257871064467	-0.06746626686656672	
1.7375801649918442E12	0.0308402894650294	9.771084337349398	-0.6743903922860726	0.05938539944585046	9.658068386322734	-0.8618796720615761	2.344686605246726	-2.2196455192976643	-0.16544459817945648	0.026986506746626684	-1.1229385307346327	-0.06296851574212893	
1.7375801649968408E12	0.006384903678306869	9.650602409638555	-0.6384903678306868	0.05938539944585046	9.658068386322734	-0.8618796720615761	2.925931424774128	-2.3852907073049527	-0.0969709613331615	0.026986506746626684	-1.1229385307346327	-0.06296851574212893	
1.7375801650018372E12	0.13938365199624617	9.686746987951807	-0.6853531514318447	0.06409566723963235	9.658068386322734	-0.8664461795335806	2.7425099713676473	-2.550935895312241	-0.1315484384492739	0.013493253373313342	-1.1109445277361318	-0.05397301349325337	
1.7375801650068337E12	0.05505473549030639	9.686746987951807	-0.6861964405969041	0.06409566723963235	9.658068386322734	-0.8664461795335806	3.0172431971708327	-2.7000165645188003	-0.039786792121546094	0.013493253373313342	-1.1109445277361318	-0.05397301349325337	
1.73758016501183E12	0.031322168987920486	9.74698795180723	-0.722578344575181	0.06949735836721962	9.660467906418715	-0.9055838536958547	2.7761226378892774	-3.2135166473413945	-0.4300279543182318	0.020989505247376312	-1.12143928035982	-0.05997001499250375	
1.7375801650168267E12	0.031081229226474945	9.698795180722891	-0.6984843684306268	0.06949735836721962	9.660467906418715	-0.9055838536958547	3.113231136817193	-2.9816133841311907	-0.4502193478754814	0.020989505247376312	-1.12143928035982	-0.05997001499250375	
1.7375801650218232E12	0.03047887982286109	9.63855421686747	-0.6382494280692412	0.04187624998163363	9.686862627474504	-0.9102097277190951	3.0533219637241675	-3.163823090939208	-0.5848763111610166	0.01199400299850075	-1.118440779610195	-0.05697151424287856	
1.7375801650268196E12	-0.04156210884935603	9.74698795180723	-0.6630662234981322	0.04187624998163363	9.686862627474504	-0.9102097277190951	2.821714763442376	-2.733145602120258	-0.3950598051870486	0.01199400299850075	-1.118440779610195	-0.05697151424287856	
1.7375801650318162E12	-0.05360909692163314	9.734939759036145	-0.6631866933788548	-0.004725749631625288	9.720455908818236	-0.8895785692270498	2.3316106407677464	-2.6337584893158854	-0.3892417184285425	0.013493253373313342	-1.118440779610195	-0.05697151424287856	
1.7375801650368127E12	-0.05336815716018759	9.74698795180723	-0.687280669523409	-0.004725749631625288	9.720455908818236	-0.8895785692270498	1.8237510741231702	-2.948484346529733	-0.1392728028223834	0.013493253373313342	-1.118440779610195	-0.05697151424287856	
1.737580165041809E12	-0.029274181015633376	9.710843373493976	-0.6870397297619636	-0.0116998571861649	9.725254949010196	-0.8872935148257044	1.382201842458581	-2.749710120920987	-0.39476311262682184	0.0074962518740629685	-1.1124437781109444	-0.05247376311844078	
1.7375801650468057E12	-0.01770907246624735	9.734939759036145	-0.6387313075921324	-0.0116998571861649	9.725254949010196	-0.8872935148257044	1.5328113550814446	-2.6171939705151566	-0.14177869344307215	0.0074962518740629685	-1.1124437781109444	-0.05247376311844078	
1.737580165051802E12	-0.02975606053852446	9.843373493975903	-0.6388517774728552	-0.0071692988163039525	9.70125974805039	-0.8828745511016616	1.930113213967291	-2.1202584064932912	-0.05573181020536183	0.005997001499250375	-1.113943028485757	-0.05997001499250375	
1.7375801650567986E12	0.0062644337975840975	9.759036144578314	-0.6264433797584097	-0.0071692988163039525	9.70125974805039	-0.8828745511016616	1.57959984843778	-2.4018552261056816	-0.2264473246355804	0.005997001499250375	-1.113943028485757	-0.05997001499250375	
1.7375801650617952E12	0.042646337775860965	9.710843373493976	-0.6501759462607956	-0.011832959925904059	9.698860227954409	-0.8806383778387462	1.8389675487525503	-2.0043067748881893	-0.12952669761338037	0.01199400299850075	-1.1394302848575713	-0.05397301349325337	
1.7375801650667915E12	-0.00554161451324747	9.698795180722891	-0.6506578257836867	-0.011832959925904059	9.698860227954409	-0.8806383778387462	1.8076229136718287	-2.0871293688918335	-0.0578503258352565	0.01199400299850075	-1.1394302848575713	-0.05397301349325337	
1.737580165071788E12	-0.07746213330474182	9.698795180722891	-0.6875216092848546	-0.01229134983880054	9.684463107378523	-0.8577188821939223	2.2978583649946476	-2.037435812489647	-0.07680127741268816	0.004497751124437781	-1.143928035982009	-0.07496251874062969	
1.7375801650767844E12	-0.06541514523246471	9.74698795180723	-0.6874011394041318	-0.01229134983880054	9.684463107378523	-0.8577188821939223	2.662077345197219	-1.7889680304787146	0.2547463378584815	0.004497751124437781	-1.143928035982009	-0.07496251874062969	
1.737580165081781E12	0.07854636223124675	9.530120481927712	-0.6257205604740731	-0.0070760854479403855	9.696460707858428	-0.8875352195198399	2.9098695091490243	-2.1865164816962066	-0.022172966969801373	0.013493253373313342	-1.1244377811094453	-0.05697151424287856	
1.7375801650867776E12	-0.0416825787300788	9.698795180722891	-0.651019235425855	-0.0070760854479403855	9.696460707858428	-0.8875352195198399	2.833903388792863	-2.2196455192976643	-0.08252877208875897	0.013493253373313342	-1.1244377811094453	-0.05697151424287856	
1.737580165091774E12	-0.17311521859862206	9.734939759036145	-0.7607672967642994	0.009272910626096394	9.689262147570485	-0.8966709354618636	2.63473070455668	-2.368726188504224	-0.07337673438159328	0.0074962518740629685	-1.118440779610195	-0.047976011994003	
1.7375801650967705E12	-0.05324768727946482	9.771084337349398	-0.6993276575956862	0.009272910626096394	9.689262147570485	-0.8966709354618636	2.54094455152499	-2.1699519628954778	0.11687715990527472	0.0074962518740629685	-1.118440779610195	-0.047976011994003	
1.737580165101767E12	-0.006505373559029639	9.759036144578314	-0.5542819212054698	0.021368109587017417	9.70605878824235	-0.9240636779651897	2.4380274325935134	-2.352161669703495	-0.3111659239761285	0.008995502248875561	-1.1334332833583207	-0.05697151424287856	
1.7375801651067634E12	-0.05300674751801928	9.759036144578314	-0.7234216337402404	0.021368109587017417	9.70605878824235	-0.9240636779651897	1.9776858718550803	-2.4349842637071393	-0.21881689454324899	0.008995502248875561	-1.1334332833583207	-0.05697151424287856	
1.73758016511176E12	0.007348662724089038	9.759036144578314	-0.7348662724089037	-0.01123522976851982	9.708458308338331	-0.9105248857079584	1.839999465494479	-2.0871293688918335	-0.23271837180626287	0.0014992503748125937	-1.1319340329835081	-0.05547226386806597	
1.7375801651167563E12	0.055536615013197475	9.74698795180723	-0.7343843928860125	-0.01123522976851982	9.708458308338331	-0.9105248857079584	1.518160437056934	-1.9049196620838162	-0.20808045913902373	0.0014992503748125937	-1.1319340329835081	-0.05547226386806597	
1.737580165121753E12	0.031322168987920486	9.771084337349398	-0.722578344575181	0.010011900260198738	9.684463107378523	-0.9336204171669809	1.6873277755084133	-2.0705648500911047	-0.27948505466984175	0.0074962518740629685	-1.1334332833583207	-0.06146926536731634	
1.7375801651267495E12	0.03156310874936603	9.783132530120483	-0.7466723207197352	0.010011900260198738	9.684463107378523	-0.9336204171669809	1.4847470001303869	-1.7724035116779857	0.07047609722164769	0.0074962518740629685	-1.1334332833583207	-0.06146926536731634	
1.7375801651317458E12	-0.029274181015633376	9.795180722891567	-0.6870397297619636	0.02364058589281166	9.658068386322734	-0.9222140521463568	1.7625561027114873	-1.9711777372867316	-0.14534993424214201	0.013493253373313342	-1.136431784107946	-0.05697151424287856	
1.7375801651367424E12	0.09203898887219712	9.710843373493976	-0.7701639474606756	0.02364058589281166	9.658068386322734	-0.9222140521463568	2.3134352080391065	-1.7724035116779857	-0.10309201371159227	0.013493253373313342	-1.136431784107946	-0.05697151424287856	
1.737580165141739E12	0.007710072366257351	9.771084337349398	-0.771007236625735	0.005029669290247504	9.660467906418715	-0.9154557508865091	2.604745727336217	-1.42454861686268	-0.13766614862936183	0.013493253373313342	-1.1259370314842578	-0.04947526236881559	
1.7375801651467354E12	-0.04023694016140554	9.759036144578314	-0.7955830922931804	0.005029669290247504	9.660467906418715	-0.9154557508865091	2.510810028329123	-1.1926453536524764	0.0675423431979676	0.013493253373313342	-1.1259370314842578	-0.04947526236881559	
1.737580165151732E12	0.007348662724089038	9.710843373493976	-0.7348662724089037	-0.012936910470750632	9.670065986802639	-0.9409142917049627	2.558811450695255	-1.4079840980619511	-0.1384191889741738	0.0074962518740629685	-1.118440779610195	-0.050974512743628186	
1.7375801651567283E12	-0.005180204871079157	9.686746987951807	-0.686798790000518	-0.012936910470750632	9.670065986802639	-0.9409142917049627	2.910783841324381	-1.0932582408481033	-0.11360618450549785	0.0074962518740629685	-1.118440779610195	-0.050974512743628186	
1.7375801651617249E12	-0.06469232594812807	9.710843373493976	-0.7596830678377945	-0.02716572530103572	9.698860227954409	-0.9223141968419786	2.7732602299044324	-0.9110485340400861	-0.14378715583372656	0.014992503748125937	-1.1229385307346327	-0.0704647676161919	
1.7375801651667214E12	-0.02843089185057398	9.771084337349398	-0.7713686462679034	-0.02716572530103572	9.698860227954409	-0.9223141968419786	2.4040527415361486	-0.9938711280437302	0.023516045466330723	0.014992503748125937	-1.1229385307346327	-0.0704647676161919	
1.7375801651717178E12	-0.04047787992285109	9.795180722891567	-0.7714891161486261	-0.024352681299305876	9.715656868626274	-0.9474929558199254	1.8697641786677015	-0.8282259400364419	-0.14640255283446976	0.013493253373313342	-1.128935532233883	-0.05847076461769115	
1.7375801651767144E12	-0.04071881968429663	9.72289156626506	-0.7473951400040719	-0.024352681299305876	9.715656868626274	-0.9474929558199254	1.97680234008427	-0.9110485340400861	-0.1304637174622199	0.013493253373313342	-1.128935532233883	-0.05847076461769115	
1.7375801651817107E12	-0.05324768727946482	9.710843373493976	-0.6993276575956862	-0.04079153208530314	9.710857828434312	-0.9338645042798779	1.5629717103198906	-0.9276130528408149	-0.09502708099364993	0.004497751124437781	-1.113943028485757	-0.05247376311844078	
1.7375801651867073E12	-0.04120069920718771	9.710843373493976	-0.6992071877149635	-0.04079153208530314	9.710857828434312	-0.9338645042798779	1.7146048590814036	-0.7950969024349842	0.05559372432518814	0.004497751124437781	-1.113943028485757	-0.05247376311844078	
1.7375801651917039E12	-0.017347662824079037	9.698795180722891	-0.6748722718089637	-0.022591918903396086	9.689262147570485	-0.9200576345068703	1.744008708723177	-0.31472585721384794	0.17799589644187455	0.014992503748125937	-1.1259370314842578	-0.05697151424287856	
1.7375801651967002E12	0.019395650796366147	9.698795180722891	-0.7347458025281809	-0.022591918903396086	9.689262147570485	-0.9200576345068703	1.5801355948708424	-0.44724200761967864	-0.28002196794183387	0.014992503748125937	-1.1259370314842578	-0.05697151424287856	
1.7375801652016968E12	-0.029033241254187832	9.686746987951807	-0.7111337059065178	0.01680102050218397	9.682063587282542	-0.9266561059406072	1.6084225705008641	-0.4969355640218651	-0.0459323946499761	0.01199400299850075	-1.1274362818590704	-0.06446776611694152	
1.7375801652066934E12	-0.02891277137346506	9.710843373493976	-0.7231806939787949	0.01680102050218397	9.682063587282542	-0.9266561059406072	2.1333925307190325	-0.6294517144276959	-0.4755470994683195	0.01199400299850075	-1.1274362818590704	-0.06446776611694152	
1.7375801652116897E12	-0.029033241254187832	9.686746987951807	-0.7111337059065178	-0.024760146255502307	9.677264547090582	-0.9271197080101037	2.0562250741976666	-0.34785489481530557	-0.41576928806680313	0.022488755622188904	-1.1229385307346327	-0.05847076461769115	
1.7375801652166863E12	-0.02891277137346506	9.734939759036145	-0.7231806939787949	-0.024760146255502307	9.677264547090582	-0.9271197080101037	2.3307971611808553	-0.34785489481530557	-0.3078937597394547	0.022488755622188904	-1.1229385307346327	-0.05847076461769115	
1.7375801652216826E12	-0.02867183161201952	9.74698795180723	-0.7472746701233491	-0.04618890494037216	9.686862627474504	-0.8949427437435169	2.451102236068207	-0.46380652642040743	-0.08725270329843449	0.017991004497751123	-1.1304347826086956	-0.05697151424287856	
1.7375801652266792E12	0.007228192843366266	9.734939759036145	-0.7228192843366266	-0.04618890494037216	9.686862627474504	-0.8949427437435169	2.2386560138786167	-0.513500082822594	-0.2821404383976625	0.017991004497751123	-1.1304347826086956	-0.05697151424287856	
1.7375801652316758E12	0.0075896024855345795	9.795180722891567	-0.7589602485534579	0.002485229808283914	9.684463107378523	-0.9037072178968749	2.192151707387187	-0.6460162332284247	-0.22589049369572958	0.022488755622188904	-1.1049475262368815	-0.05247376311844078	
1.737580165236672E12	0.043610096821643136	9.807228915662652	-0.7465518508390124	0.002485229808283914	9.684463107378523	-0.9037072178968749	2.3926603686780763	-0.6957097896306111	-0.36864023687348313	0.022488755622188904	-1.1049475262368815	-0.05247376311844078	
1.7375801652416687E12	0.09131616958786049	9.734939759036145	-0.697882019027013	0.0305613694503633	9.689262147570485	-0.9218329066983038	2.1613969756048044	-0.7785323836342554	-0.2132044517514806	0.010494752623688156	-1.1124437781109444	-0.05547226386806597	
1.7375801652466653E12	0.11528967585169193	9.72289156626506	-0.6855940911932903	0.0305613694503633	9.689262147570485	-0.9218329066983038	2.4958865162842985	-0.6791452708298823	0.028499979533432196	0.010494752623688156	-1.1124437781109444	-0.05547226386806597	
1.7375801652516616E12	0.0308402894650294	9.686746987951807	-0.6743903922860726	0.044413492342733445	9.698860227954409	-0.9215984046655409	2.282822236745219	-0.3975484512174921	-0.10458202061682002	0.017991004497751123	-1.1229385307346327	-0.08095952023988005	
1.7375801652566582E12	0.055416145132474705	9.710843373493976	-0.7223374048137354	0.044413492342733445	9.698860227954409	-0.9215984046655409	2.3743883858350223	-0.3312903760145768	-0.07283552071508491	0.017991004497751123	-1.1229385307346327	-0.08095952023988005	
1.7375801652616545E12	0.055657084893920246	9.72289156626506	-0.7464313809582896	0.07239929746479477	9.694061187762447	-0.9352073674660667	2.6045150314486714	-0.5797581580255093	-0.1145965598747861	0.013493253373313342	-1.128935532233883	-0.05697151424287856	
1.7375801652666511E12	0.031442638868643256	9.72289156626506	-0.7346253326474581	0.07239929746479477	9.694061187762447	-0.9352073674660667	2.315526034569829	-0.7454033460327977	-0.31217466678385014	0.013493253373313342	-1.128935532233883	-0.05697151424287856	
1.7375801652716477E12	-0.01674531342046518	9.710843373493976	-0.7351072121703492	0.02621531858499915	9.713257348530293	-0.9354772456471862	2.3163752829232345	-0.46380652642040743	-0.3970995021243879	0.01199400299850075	-1.103448275862069	-0.05547226386806597	
1.737580165276644E12	-0.01638390377829687	9.710843373493976	-0.7712481763871806	0.02621531858499915	9.713257348530293	-0.9354772456471862	2.317877367159904	-0.8613549776378996	-0.5473079257913789	0.01199400299850075	-1.103448275862069	-0.05547226386806597	
1.7375801652816406E12	-0.004698325348188072	9.698795180722891	-0.7349867422896265	0.028851052203095966	9.694061187762447	-0.9517904854434819	2.284480491439917	-0.8944840152393573	-0.27040749008664916	0.017991004497751123	-1.1169415292353824	-0.05397301349325337	
1.737580165286637E12	0.04385103658308868	9.734939759036145	-0.7706458269835667	0.02926619408821375	9.694061187762447	-0.9725475796993713	1.9455608796005865	-0.5631936392247805	-0.06910480538792071	0.017991004497751123	-1.1169415292353824	-0.05397301349325337	
1.7375801652916335E12	0.019998000199980003	9.734939759036145	-0.7949807428895664	0.05004245919453863	9.718056388722255	-0.97209986503871	1.3326922064895248	-0.612887195626967	-0.03798022016229896	0.019490254872563718	-1.1349325337331333	-0.05247376311844078	
1.7375801652966301E12	0.03180404851081157	9.66265060240964	-0.7707662968642894	0.059468272670735844	9.691661667666466	-0.9814967744143905	1.5767904363139251	-0.6294517144276959	0.05449388774991145	0.019490254872563718	-1.1349325337331333	-0.05247376311844078	
1.7375801653016265E12	0.007348662724089038	9.698795180722891	-0.7348662724089037	0.059468272670735844	9.691661667666466	-0.9814967744143905	1.7488741688439795	-0.71227430843134	-0.3085501156383977	0.010494752623688156	-1.118440779610195	-0.050974512743628186	
1.737580165306623E12	0.06770407296619736	9.63855421686747	-0.746310911077567	0.035925090438805325	9.650869826034793	-0.959072073903315	2.1005656848495122	-0.513500082822594	-0.25564964881033464	0.010494752623688156	-1.118440779610195	-0.050974512743628186	
1.7375801653116196E12	0.09167757923002881	9.650602409638555	-0.7340229832438443	0.035925090438805325	9.650869826034793	-0.959072073903315	2.313148204049259	-0.3644194136160344	-0.07439161472681476	0.013493253373313342	-1.1349325337331333	-0.06146926536731634	
1.737580165316616E12	0.03180404851081157	9.807228915662652	-0.7707662968642894	0.04308562473007207	9.636472705458907	-0.9706784651410169	2.2698875376383643	-0.7619678648335265	-0.34250567807839666	0.013493253373313342	-1.1349325337331333	-0.06146926536731634	
1.7375801653216125E12	0.01975706043853446	9.819277108433736	-0.7708867667450122	0.04308562473007207	9.636472705458907	-0.9706784651410169	2.2871744702342256	-0.04969355640218651	-0.5398053695175353	0.0014992503748125937	-1.1319340329835081	-0.05847076461769115	
1.737580165326609E12	0.09179804911075158	9.566265060240964	-0.7460699713161214	0.03823889554014792	9.626874625074985	-0.9592888878618995	2.576161810992412	0.1325161504058307	-0.34206165054287707	0.0014992503748125937	-1.1319340329835081	-0.05847076461769115	
1.7375801653316055E12	-0.004698325348188072	9.530120481927712	-0.7349867422896265	0.03823889554014792	9.626874625074985	-0.9592888878618995	2.636572617872641	-0.31472585721384794	-0.25756806597773957	0.010494752623688156	-1.1259370314842578	-0.05997001499250375	
1.737580165336602E12	-0.0525248679951282	9.66265060240964	-0.7716095860293488	0.017457832353247195	9.626874625074985	-0.9594966984937685	2.9716355006439144	-0.09938711280437303	-0.07319784387075998	0.010494752623688156	-1.1259370314842578	-0.05997001499250375	
1.7375801653415984E12	-0.08866583221195952	9.674698795180724	-0.7719709956715172	0.017457832353247195	9.626874625074985	-0.9594966984937685	2.878450843755155	-0.06625807520291535	0.05690643612307396	0.014992503748125937	-1.136431784107946	-0.07496251874062969	
1.737580165346595E12	0.0308402894650294	9.734939759036145	-0.6743903922860726	0.03601878361522648	9.64367126574685	-0.9637567327243726	2.8644676666998126	-0.1822097068080172	-0.07616942648967845	0.014992503748125937	-1.136431784107946	-0.07496251874062969	
1.7375801653515913E12	0.0075896024855345795	9.698795180722891	-0.7589602485534579	0.03601878361522648	9.64367126574685	-0.9637567327243726	2.802041053834748	-0.04969355640218651	0.040917587428718157	0.01649175412293853	-1.1199400299850075	-0.06146926536731634	
1.737580165356588E12	0.0075896024855345795	9.686746987951807	-0.7589602485534579	0.04584870339121703	9.67246550689862	-0.99335895708972	2.6499460181817738	0.04969355640218651	-0.06351452874398225	0.01649175412293853	-1.1199400299850075	-0.06146926536731634	
1.7375801653615845E12	0.043489626940920366	9.698795180722891	-0.7345048627667353	0.04584870339121703	9.67246550689862	-0.99335895708972	2.8944779808464847	0.0828225940036442	-0.014413704862808602	0.01649175412293853	-1.128935532233883	-0.05697151424287856	
1.7375801653665808E12	0.055536615013197475	9.759036144578314	-0.7343843928860125	0.061225196602184964	9.684463107378523	-0.9538695298783015	3.3236459820481272	-0.1656451880072884	-0.05219391691074993	0.01649175412293853	-1.128935532233883	-0.05697151424287856	
1.7375801653715774E12	0.055657084893920246	9.734939759036145	-0.7464313809582896	0.061225196602184964	9.684463107378523	-0.9538695298783015	3.449024522371013	0.1656451880072884	-0.3388994040232454	0.022488755622188904	-1.1334332833583207	-0.05847076461769115	
1.737580165376574E12	0.09179804911075158	9.72289156626506	-0.7460699713161214	0.05664803154814224	9.710857828434312	-0.9559581593932552	3.1010969926768053	0.34785489481530557	-0.768198501983743	0.022488755622188904	-1.1334332833583207	-0.05847076461769115	
1.7375801653815703E12	0.06782454284692013	9.734939759036145	-0.7583578991498441	0.05664803154814224	9.710857828434312	-0.9559581593932552	3.1475047490538204	-0.016564518800728838	-0.8147934352442279	0.013493253373313342	-1.1274362818590704	-0.05697151424287856	
1.737580165386567E12	0.044091976344534226	9.807228915662652	-0.7947398031281209	0.05180466101462118	9.684463107378523	-0.9447365149342923	3.0410399297290316	0.1822097068080172	-0.8880664797944109	0.013493253373313342	-1.1274362818590704	-0.05697151424287856	
1.7375801653915632E12	0.04433291610597977	9.72289156626506	-0.8188337792726751	0.05180466101462118	9.684463107378523	-0.9447365149342923	2.47377497501566	0.4969355640218651	-0.8231330298967652	0.01199400299850075	-1.128935532233883	-0.06146926536731634	
1.7375801653965598E12	0.031322168987920486	9.674698795180724	-0.722578344575181	0.05221788366750863	9.694061187762447	-0.9653976475786649	2.285507934936248	0.5300646016233228	-0.37315183971973537	0.01199400299850075	-1.128935532233883	-0.06146926536731634	
1.7375801654015564E12	0.055657084893920246	9.710843373493976	-0.7464313809582896	0.05221788366750863	9.694061187762447	-0.9653976475786649	2.5600535239889415	0.7950969024349842	-0.2626265183428802	0.019490254872563718	-1.1229385307346327	-0.05997001499250375	
1.7375801654065527E12	0.056259434297534106	9.686746987951807	-0.8066663213196752	0.10029188921849252	9.694061187762447	-0.9441556618484144	1.7612310526134567	1.0435646844459168	-0.012844924439091486	0.019490254872563718	-1.1229385307346327	-0.05997001499250375	
1.7375801654115493E12	0.08011247068064278	9.686746987951807	-0.7823314054136755	0.10029188921849252	9.694061187762447	-0.9441556618484144	1.6534716592503602	1.027000165645188	0.04333943484145909	0.004497751124437781	-1.1259370314842578	-0.05847076461769115	
1.737580165416546E12	0.10372456730230592	9.66265060240964	-0.7339025133631215	0.10999782260783804	9.650869826034793	-0.9675585668815092	1.2995684199062214	1.010435646844459	0.2116113018740284	0.004497751124437781	-1.1259370314842578	-0.05847076461769115	
1.7375801654215422E12	0.09179804911075158	9.698795180722891	-0.7460699713161214	0.10999782260783804	9.650869826034793	-0.9675585668815092	1.7429623820117146	1.3748550604604934	0.28262856758811844	0.010494752623688156	-1.136431784107946	-0.06146926536731634	
1.7375801654265388E12	0.09179804911075158	9.686746987951807	-0.7460699713161214	0.11406711221645699	9.626874625074985	-0.9400761650953672	1.9870076159751244	1.8883551432830874	0.38040226159934226	0.010494752623688156	-1.136431784107946	-0.06146926536731634	
1.7375801654315352E12	0.07975106103847447	9.674698795180724	-0.7461904411968442	0.11406711221645699	9.626874625074985	-0.9400761650953672	2.5253807866742317	1.8220970680801722	0.14186007683406113	0.014992503748125937	-1.1154422788605696	-0.07346326836581708	
1.7375801654365317E12	0.10408597694447423	9.72289156626506	-0.7700434775799528	0.07282499512717942	9.641271745650869	-0.9564922505852993	1.9731325818787881	2.153387444094749	0.23651210308598264	0.014992503748125937	-1.1154422788605696	-0.07346326836581708	
1.7375801654415283E12	0.05601849453608856	9.759036144578314	-0.782572345175121	0.07282499512717942	9.641271745650869	-0.9564922505852993	1.617898333841911	2.2859035945005797	0.5378848393923574	0.014992503748125937	-1.1169415292353824	-0.05697151424287856	
1.7375801654465247E12	-0.0045778554674653004	9.698795180722891	-0.7470337303619036	0.04482575537950573	9.713257348530293	-0.9422115565041547	0.8508476059048341	2.733145602120258	0.673279225749362	0.014992503748125937	-1.1169415292353824	-0.05697151424287856	
1.7375801654515212E12	-0.016865783301187952	9.72289156626506	-0.7230602240980721	0.04482575537950573	9.713257348530293	-0.9422115565041547	0.18967013787355158	3.047871459334106	0.941102598556019	0.019490254872563718	-1.128935532233883	-0.05847076461769115	
1.7375801654565176E12	0.044091976344534226	9.759036144578314	-0.7947398031281209	0.024370459173819897	9.698860227954409	-0.9587077161967685	-0.14691139034095096	3.395726354149412	0.9085969207719721	0.019490254872563718	-1.128935532233883	-0.05847076461769115	
1.7375801654615142E12	-0.01650437365901964	9.674698795180724	-0.7592011883149035	0.024370459173819897	9.698860227954409	-0.9587077161967685	-0.6072612316826637	3.395726354149412	1.0017740105328226	0.008995502248875561	-1.1229385307346327	-0.06146926536731634	
1.7375801654665107E12	-0.01650437365901964	9.602409638554217	-0.7592011883149035	0.017775922405540736	9.650869826034793	-0.9754012011084457	-0.5483574774010722	3.395726354149412	1.2369728549617334	0.008995502248875561	-1.1229385307346327	-0.06146926536731634	
1.737580165471507E12	0.05601849453608856	9.674698795180724	-0.782572345175121	0.017775922405540736	9.650869826034793	-0.9754012011084457	0.08006650918592151	3.9257909557727344	1.181710490289932	0.01199400299850075	-1.1349325337331333	-0.06146926536731634	
1.7375801654765037E12	0.043610096821643136	9.63855421686747	-0.7465518508390124	0.035652167646520815	9.631673665266947	-0.9454259342890892	0.7412842192293165	4.671194301805532	0.9098629162720288	0.01199400299850075	-1.1349325337331333	-0.06146926536731634	
1.7375801654815002E12	0.06746313320475181	9.650602409638555	-0.7222169349330128	0.035652167646520815	9.631673665266947	-0.9454259342890892	1.1200249400452351	5.499420241841974	1.3206300383554952	0.01199400299850075	-1.136431784107946	-0.05697151424287856	
1.7375801654864966E12	0.20034141164196834	9.66265060240964	-0.7570327304618936	0.103353320498974	9.622075584883023	-0.9817537847639426	1.0312223268172902	5.582242835845618	1.0125299522679188	0.01199400299850075	-1.136431784107946	-0.05697151424287856	
1.7375801654914932E12	0.12805948320830568	9.650602409638555	-0.7577555497462302	0.103353320498974	9.622075584883023	-0.9817537847639426	1.169251379382125	6.195130031472585	0.9921668091075753	0.0029985007496251873	-1.1229385307346327	-0.05247376311844078	
1.7375801654964895E12	0.11601249513602857	9.650602409638555	-0.757876019626953	0.11462063472994737	9.626874625074985	-0.9677522907698862	1.798082600878934	7.039920490309756	0.8961809534542435	0.0029985007496251873	-1.1229385307346327	-0.05247376311844078	
1.737580165501486E12	0.12817995308902844	9.698795180722891	-0.7698025378185073	0.11462063472994737	9.626874625074985	-0.9677522907698862	2.3777292811716215	8.232565843962233	1.1244685137719914	0.008995502248875561	-1.1109445277361318	-0.05847076461769115	
1.7375801655064827E12	0.22443538778652256	9.626506024096386	-0.756791790700448	0.16717427369409218	9.626874625074985	-0.9395450934805908	2.316003531688844	7.205565678317044	1.1714691894617038	0.008995502248875561	-1.1109445277361318	-0.05847076461769115	
1.737580165511479E12	0.2125088695949682	9.63855421686747	-0.7689592486534479	0.16717427369409218	9.626874625074985	-0.9395450934805908	2.794583952857212	7.255259234719231	0.7866276851823093	0.022488755622188904	-1.1199400299850075	-0.05847076461769115	
1.7375801655164756E12	0.12769807356613735	9.626506024096386	-0.7216145855293988	0.1704975921815337	9.629274145170966	-0.9902375767441223	3.280521271104297	8.315388437965877	-0.3339035269687686	0.022488755622188904	-1.1199400299850075	-0.05847076461769115	
1.7375801655214722E12	0.06830642236981121	9.614457831325302	-0.8065458514389525	0.1704975921815337	9.629274145170966	-0.9902375767441223	4.439270053084957	10.733808182872286	-1.3542641140088028	0.020989505247376312	-1.1229385307346327	-0.06746626686656672	
1.7375801655264685E12	0.2137135684021959	9.650602409638555	-0.889429129376219	0.17331879292024252	9.605278944211157	-1.0158241725710162	3.840530847215334	7.437468941527248	0.3267008833670386	0.020989505247376312	-1.1229385307346327	-0.06746626686656672	
1.737580165531465E12	0.16612796551670134	9.710843373493976	-0.9501459492604957	0.17331879292024252	9.605278944211157	-1.0158241725710162	2.8979983466498385	7.288388272320689	-0.36645028519826456	0.0074962518740629685	-1.1274362818590704	-0.05697151424287856	
1.7375801655364614E12	0.08119669960714772	9.650602409638555	-0.8907542980641695	0.12930085798605387	9.634073185362926	-1.124396248032485	2.5620790394741637	8.762630445585556	-1.996571635012084	0.0074962518740629685	-1.1274362818590704	-0.05697151424287856	
1.737580165541458E12	0.11625343489747411	9.542168674698795	-0.7819699957715072	0.12930085798605387	9.634073185362926	-1.124396248032485	3.4382188941432457	10.6841146264701	-0.7897301493934608	0.004497751124437781	-1.1259370314842578	-0.05997001499250375	
1.7375801655464546E12	0.16552561611308747	9.530120481927712	-0.8899110088991101	0.18404431566489618	9.538092381523695	-1.0902065453695213	2.789951454180524	7.222130197117774	-0.28151601529595033	0.004497751124437781	-1.1259370314842578	-0.05997001499250375	
1.737580165551451E12	0.15359909792153315	9.566265060240964	-0.9020784668521099	0.18404431566489618	9.538092381523695	-1.0902065453695213	2.7342151584292953	7.719065761139638	-0.8334607127610444	0.014992503748125937	-1.1124437781109444	-0.06146926536731634	
1.7375801655564475E12	0.0325268677951482	9.650602409638555	-0.8430482252979521	0.06462076723464895	9.542891421715655	-1.1236480615015005	3.9759801947266578	11.760808348517475	-4.029872458883272	0.014992503748125937	-1.1124437781109444	-0.06146926536731634	
1.7375801655614438E12	0.3333401599599076	9.397590361445783	-0.8038955140630515	0.06462076723464895	9.542891421715655	-1.1236480615015005	4.683000794895285	10.004969355640219	-1.2250412046893222	0.013493253373313342	-1.128935532233883	-0.05397301349325337	
1.7375801655664404E12	0.286838786000918	9.44578313253012	-0.9730352265978222	0.311378423605837	9.458908218356328	-1.1058726814465838	3.7943361788345626	7.569985091933079	-1.1794065511438785	0.013493253373313342	-1.128935532233883	-0.05397301349325337	
1.737580165571437E12	0.14275680865648374	9.566265060240964	-1.0226688174556038	0.311378423605837	9.458908218356328	-1.1058726814465838	3.4367528637641804	8.232565843962233	-2.1745206796339307	0.0029985007496251873	-1.128935532233883	-0.05247376311844078	
1.7375801655764333E12	0.03312921719876205	9.578313253012048	-0.9032831656593376	0.16631124913286455	9.533293341331733	-1.1273407476363	4.22252084377721	10.717243664071558	-4.18164027358627	0.0029985007496251873	-1.128935532233883	-0.05247376311844078	
1.73758016558143E12	0.17636790537813687	9.506024096385543	-0.7693206582956162	0.16631124913286455	9.533293341331733	-1.1273407476363	6.183313598209451	12.4068245817459	-4.242538993992522	0.014992503748125937	-1.1334332833583207	-0.06146926536731634	
1.7375801655864265E12	0.3580364855080757	9.55421686746988	-0.8638895146629915	0.32568296308062394	9.52609478104379	-1.0127855674261146	5.456625967952284	7.719065761139638	-0.48648653489148563	0.014992503748125937	-1.1334332833583207	-0.06146926536731634	
1.7375801655914229E12	0.3216545815297988	9.590361445783133	-0.8401569481606056	0.32568296308062394	9.52609478104379	-1.0127855674261146	4.296143968598578	7.420904422726519	-2.3555913468410146	0.0074962518740629685	-1.1244377811094453	-0.05697151424287856	
1.7375801655964194E12	0.2723824003141854	9.63855421686747	-0.7322159350330028	0.31716625250129826	9.619676064787042	-1.0488438028940141	4.565585235359188	7.9840980619513	-3.2660273644027162	0.0074962518740629685	-1.1244377811094453	-0.05697151424287856	
1.7375801656014158E12	0.1996185923576317	9.698795180722891	-0.6847508020282309	0.31716625250129826	9.619676064787042	-1.0488438028940141	6.538520967519006	10.054662912042405	-6.072617425713779	0.008995502248875561	-1.1274362818590704	-0.05847076461769115	
1.7375801656064124E12	0.3803234134417883	9.686746987951807	-0.6829437538173894	0.2726010810988481	9.64367126574685	-0.8991071727253148	7.587116572429816	7.735630279940367	-3.734628146503791	0.008995502248875561	-1.1274362818590704	-0.05847076461769115	
1.737580165611409E12	0.4400764742802828	9.63855421686747	-0.634153452124667	0.2726010810988481	9.64367126574685	-0.8991071727253148	7.197108734489762	5.515984760642703	-3.0186835561738663	0.022488755622188904	-1.1229385307346327	-0.06146926536731634	
1.7375801656164053E12	0.5127198123561137	9.481927710843374	-0.6695715970571617	0.5068721881552037	9.641271745650869	-0.9498449735800479	6.5367011353399445	5.880404174258738	-4.359240639660603	0.022488755622188904	-1.1229385307346327	-0.06146926536731634	
1.7375801656214019E12	0.39152711234900606	9.771084337349398	-0.5984943674307268	0.5068721881552037	9.641271745650869	-0.9498449735800479	6.736585724234635	6.658936557892993	-5.970976711365366	0.010494752623688156	-1.12143928035982	-0.06146926536731634	
1.7375801656263984E12	0.6090957169343306	9.63855421686747	-0.6686078380113796	0.5212343698994969	9.650869826034793	-0.8596399730348903	6.864637816920046	4.2405168129865825	-3.4622502984365155	0.010494752623688156	-1.12143928035982	-0.06146926536731634	
1.7375801656313948E12	0.5495835958572818	9.734939759036145	-0.741492115848656	0.5212343698994969	9.650869826034793	-0.8596399730348903	6.1148498456569085	2.716581083319529	-3.5217380113263586	0.014992503748125937	-1.1319340329835081	-0.05697151424287856	
1.7375801656363914E12	0.6211427050066077	9.63855421686747	-0.6684873681306568	0.6100923182606506	9.607678464307138	-0.9145466289678633	6.055926217927445	2.9153553089282753	-3.75494951096814	0.014992503748125937	-1.1319340329835081	-0.05697151424287856	
1.7375801656413877E12	0.5362114390970542	9.66265060240964	-0.6090957169343306	0.6100923182606506	9.607678464307138	-0.9145466289678633	6.3978504933564855	3.246645684942852	-4.256718554637837	0.017991004497751123	-1.1244377811094453	-0.05697151424287856	
1.7375801656463843E12	0.40393551006345146	9.698795180722891	-0.6345148617668354	0.4375527561739429	9.670065986802639	-0.8326031666648133	7.89633948636236	4.439291038595329	-5.56044174496505	0.017991004497751123	-1.1244377811094453	-0.05697151424287856	
1.7375801656513809E12	0.5607872947644994	9.72289156626506	-0.6570427294619936	0.4375527561739429	9.670065986802639	-0.8326031666648133	6.823968011158425	0.8944840152393573	-2.458056858568419	0.013493253373313342	-1.128935532233883	-0.04947526236881559	
1.7375801656563772E12	0.4766993180200052	9.795180722891567	-0.6819799947716072	0.5719811195916077	9.677264547090582	-0.85656175325244	6.0049742888368804	0.46380652642040743	-3.2539373063526518	0.013493253373313342	-1.128935532233883	-0.04947526236881559	
1.7375801656613738E12	0.48826442656939123	9.650602409638555	-0.633671572601776	0.5719811195916077	9.677264547090582	-0.85656175325244	5.3994884012991164	0.7288388272320688	-2.429697710309858	0.014992503748125937	-1.1244377811094453	-0.06296851574212893	
1.73758016566637E12	0.452605341875451	9.855421686746988	-0.6822209345330527	0.4473692413243211	9.766046790641871	-0.8615336597495423	5.3697738668619435	0.4306774888189498	-2.5210314028864627	0.014992503748125937	-1.1244377811094453	-0.06296851574212893	
1.7375801656713667E12	0.46453186006700536	9.843373493975903	-0.6700534765800529	0.4473692413243211	9.766046790641871	-0.8615336597495423	5.248102509631709	-0.41411297001822095	-2.6050442250392134	0.01649175412293853	-1.118440779610195	-0.06446776611694152	
1.7375801656763633E12	0.3437005697020659	9.807228915662652	-0.6351172111704492	0.4103218396544803	9.821235752849429	-0.8567386339942228	5.902648729324398	0.2153387444094749	-3.7411363321335243	0.01649175412293853	-1.118440779610195	-0.06446776611694152	
1.7375801656813596E12	0.3679150157273429	9.831325301204819	-0.6469232594812808	0.4103218396544803	9.821235752849429	-0.8567386339942228	5.409587361123168	-1.2589034288553917	-1.9082001245679185	0.013493253373313342	-1.1319340329835081	-0.05247376311844078	
1.7375801656863562E12	0.30828242476957124	9.879518072289157	-0.7077605492462802	0.4087052155836341	9.818836232753448	-0.8913808715604585	5.061622901658159	-2.1699519628954778	-2.333806245448358	0.013493253373313342	-1.1319340329835081	-0.05247376311844078	
1.7375801656913528E12	0.3087643042924623	9.843373493975903	-0.7559485015353886	0.4087052155836341	9.818836232753448	-0.8913808715604585	4.444734209422018	-2.965048865330462	-1.9006797477148276	0.010494752623688156	-1.1274362818590704	-0.06146926536731634	
1.737580165696349E12	0.30900524405390783	9.795180722891567	-0.7800424776799428	0.3477866812941487	9.845230953809237	-0.9632370670169017	4.125236576850613	-2.7994036773231734	-2.110181421661552	0.010494752623688156	-1.1274362818590704	-0.06146926536731634	
1.7375801657013457E12	0.272623340075631	9.855421686746988	-0.756309911177557	0.3477866812941487	9.845230953809237	-0.9632370670169017	3.9100500044883475	-3.2300811661421234	-2.031034139493257	0.013493253373313342	-1.1274362818590704	-0.06596701649175413	
1.737580165706342E12	0.2850317377900764	9.831325301204819	-0.7923304055136655	0.3045565260847434	9.869226154769045	-0.995724687608994	3.6502253856440836	-3.4454199105515984	-2.082262913566102	0.013493253373313342	-1.1274362818590704	-0.06596701649175413	
1.7375801657113386E12	0.3087643042924623	9.831325301204819	-0.7559485015353886	0.3045565260847434	9.869226154769045	-0.995724687608994	3.435725266694572	-3.4288553917508695	-2.07176097267313	0.019490254872563718	-1.1424287856071964	-0.06146926536731634	
1.7375801657163352E12	0.3218955212912444	9.91566265060241	-0.8642509243051598	0.32414810228735536	9.806838632273545	-1.0515159688712308	3.976875222220786	-3.478548948153056	-2.587981640149006	0.019490254872563718	-1.1424287856071964	-0.06146926536731634	
1.7375801657213315E12	0.2734666292406904	9.783132530120483	-0.8406388276834967	0.32414810228735536	9.806838632273545	-1.0515159688712308	4.850347710345598	-3.693887692562531	-2.6457970682503786	0.005997001499250375	-1.1304347826086956	-0.05547226386806597	
1.7375801657263281E12	0.2372051951431363	9.72289156626506	-0.8289532492533879	0.292390880367954	9.730053989202158	-1.0802830484207926	5.7857816122027	-3.776710286566175	-2.774179596992823	0.005997001499250375	-1.1304347826086956	-0.05547226386806597	
1.7375801657313247E12	0.20118470080702772	9.66265060240964	-0.8413616469678333	0.292390880367954	9.730053989202158	-1.0802830484207926	7.027737044507956	-3.975484512174921	-2.9268438076102647	0.01199400299850075	-1.128935532233883	-0.06596701649175413	
1.737580165736321E12	0.21359309852147315	9.626506024096386	-0.8773821413039419	0.24161287784950408	9.629274145170966	-1.0817986268862891	8.361047308346969	-4.919662083816465	-3.026629762721539	0.01199400299850075	-1.128935532233883	-0.06596701649175413	
1.7375801657413176E12	0.2016665803299188	9.602409638554217	-0.8895495992569418	0.24161287784950408	9.629274145170966	-1.0817986268862891	9.418042768354644	-4.522113632598972	-3.0600195613450305	0.01649175412293853	-1.128935532233883	-0.06296851574212893	
1.737580165746314E12	0.23816895418891845	9.63855421686747	-0.9253291538316047	0.21436942101794818	9.612477504499099	-1.105307078611035	10.905714938283257	-4.836839489812821	-3.282060443945831	0.01649175412293853	-1.128935532233883	-0.06296851574212893	
1.7375801657513105E12	0.27443038828647254	9.626506024096386	-0.9370147322617136	0.21436942101794818	9.612477504499099	-1.105307078611035	11.92550162308014	-5.400033129037601	-4.188753425931303	0.020989505247376312	-1.1274362818590704	-0.05997001499250375	
1.7375801657563071E12	0.2749122678093636	9.626506024096386	-0.985202684550822	0.25325757946023864	9.578884223155368	-1.2021399429888384	12.584234520648243	-6.12887195626967	-4.212119752420171	0.020989505247376312	-1.1274362818590704	-0.05997001499250375	
1.7375801657613035E12	0.27575555697442306	9.626506024096386	-1.0695316010567617	0.25325757946023864	9.578884223155368	-1.2021399429888384	12.781511134703191	-6.029484843465297	-4.031664772003569	0.013493253373313342	-1.1199400299850075	-0.06746626686656672	
1.7375801657663E12	0.2998495331189773	9.626506024096386	-1.0692906612953161	0.30737425432397275	9.605278944211157	-1.2520845406790089	13.336541092687707	-6.393904257081331	-4.404492117162868	0.013493253373313342	-1.1199400299850075	-0.06746626686656672	
1.7375801657712964E12	0.27647837625875965	9.66265060240964	-1.1418135294904244	0.30737425432397275	9.605278944211157	-1.2520845406790089	13.840811060806203	-6.741759151896637	-4.295501180160967	0.0074962518740629685	-1.128935532233883	-0.05847076461769115	
1.737580165776293E12	0.264190448425037	9.626506024096386	-1.117840023226593	0.3071866037968615	9.607678464307138	-1.3581754554319938	13.561561150452704	-6.758323670697366	-3.935594371457171	0.0074962518740629685	-1.128935532233883	-0.05847076461769115	
1.7375801657812896E12	0.31334215975992763	9.614457831325302	-1.2137340482819188	0.3071866037968615	9.607678464307138	-1.3581754554319938	13.241933845353765	-6.758323670697366	-4.132128792650564	0.0029985007496251873	-1.12143928035982	-0.06746626686656672	
1.737580165786286E12	0.2775626051852646	9.566265060240964	-1.2502364221409183	0.3012296865573423	9.600479904019195	-1.4067499167816626	12.992047542629924	-7.354646347523604	-3.6457956106188343	0.0029985007496251873	-1.12143928035982	-0.06746626686656672	
1.7375801657912825E12	0.2296155926576017	9.650602409638555	-1.2748122778083637	0.3012296865573423	9.600479904019195	-1.4067499167816626	12.16517044763262	-7.917839986748384	-3.6533387908270734	0.014992503748125937	-1.12143928035982	-0.06296851574212893	
1.737580165796279E12	0.20516020687087919	9.650602409638555	-1.238912253352978	0.267759268542328	9.542891421715655	-1.4653306326591276	12.03853708016717	-8.862017558389928	-3.2411505894581043	0.014992503748125937	-1.12143928035982	-0.06296851574212893	
1.7375801658012754E12	0.1804638813227111	9.493975903614459	-1.178918252753038	0.267759268542328	9.542891421715655	-1.4653306326591276	12.452028871084996	-8.381646513168793	-3.242703341271491	0.01649175412293853	-1.1199400299850075	-0.05697151424287856	
1.737580165806272E12	0.1804638813227111	9.433734939759036	-1.178918252753038	0.18141450683679888	9.487702459508098	-1.4206098683988349	12.622779938801656	-8.298823919165148	-3.4724808633204005	0.01649175412293853	-1.1199400299850075	-0.05697151424287856	
1.7375801658112683E12	-0.011444638668663253	9.46987951807229	-1.265174687350542	0.18141450683679888	9.487702459508098	-1.4206098683988349	13.509878052691674	-9.209872453205234	-3.3614652997953165	0.008995502248875561	-1.118440779610195	-0.05847076461769115	
1.737580165816265E12	-0.14311821829865207	9.518072289156628	-1.3508287725444323	0.043613075224896374	9.482903419316136	-1.4589447543164122	13.989368998677717	-9.491469272817625	-3.837359285842233	0.008995502248875561	-1.118440779610195	-0.05847076461769115	
1.7375801658212615E12	-0.15576755577454302	9.44578313253012	-1.2907143020637695	0.043613075224896374	9.482903419316136	-1.4589447543164122	13.471145663675687	-9.557727348020538	-4.082407102637582	0.022488755622188904	-1.1109445277361318	-0.06296851574212893	
1.7375801658262578E12	-0.13227592903360266	9.46987951807229	-1.2302384219409384	-0.0834625694680835	9.422915416916616	-1.4562017806373948	12.927102614079624	-10.84975981447739	-4.80827059632391	0.022488755622188904	-1.1109445277361318	-0.06296851574212893	
1.7375801658312544E12	-0.20431691770581978	9.46987951807229	-1.2550552173698293	-0.0834625694680835	9.422915416916616	-1.4562017806373948	12.216483030229353	-11.56203412290873	-5.72180991420648	0.014992503748125937	-1.1124437781109444	-0.06146926536731634	
1.7375801658362507E12	-0.264190448425037	9.457831325301205	-1.2917985309902744	-0.23737420603642284	9.384523095380922	-1.4973405064929453	11.824327506087904	-12.340566506542984	-6.322490271883849	0.014992503748125937	-1.1124437781109444	-0.06146926536731634	
1.7375801658412473E12	-0.3121374609526999	9.397590361445783	-1.3163743866577198	-0.23737420603642284	9.384523095380922	-1.4973405064929453	11.692543444952003	-12.522776213351001	-6.926626271616801	0.014992503748125937	-1.1229385307346327	-0.06296851574212893	
1.737580165846244E12	-0.3240639791442542	9.433734939759036	-1.3285418446107196	-0.32520296888111666	9.355728854229154	-1.4938931263829673	12.429957971239103	-12.589034288553917	-7.161187629270322	0.014992503748125937	-1.1229385307346327	-0.06296851574212893	
1.7375801658512402E12	-0.35972306383819447	9.46987951807229	-1.3770912065419965	-0.32520296888111666	9.355728854229154	-1.4938931263829673	12.342647505523894	-12.804373032963392	-7.618502466631324	0.014992503748125937	-1.1229385307346327	-0.05247376311844078	
1.7375801658562368E12	-0.4077905462465802	9.349397590361447	-1.3896200741371645	-0.3169786375906478	9.326934613077384	-1.558689367580773	12.410999649302841	-13.698857048202749	-8.328142571937978	0.014992503748125937	-1.1229385307346327	-0.05247376311844078	
1.7375801658612334E12	-0.2749122678093636	9.289156626506024	-1.4244358696660455	-0.3169786375906478	9.326934613077384	-1.558689367580773	12.428146477530863	-14.510518469438463	-8.511431826593233	0.01649175412293853	-1.1319340329835081	-0.06746626686656672	
1.7375801658662297E12	-0.22768807456603737	9.096385542168676	-1.3275780855649375	-0.3023274837543812	9.262147570485903	-1.598406412742835	12.673085675105389	-14.162663574623156	-8.50305449369359	0.01649175412293853	-1.1319340329835081	-0.06746626686656672	
1.7375801658712263E12	-0.26358809902142316	9.19277108433735	-1.35203347135166	-0.3023274837543812	9.262147570485903	-1.598406412742835	13.488098078512856	-14.427695875434818	-8.840435722648474	0.0239880059970015	-1.1319340329835081	-0.06446776611694152	
1.7375801658762227E12	-0.3946593292477981	9.325301204819278	-1.4979224969069358	-0.28569692834302335	9.230953809238152	-1.6216200955509104	14.251828489702852	-15.305615371873445	-8.643798434297647	0.0239880059970015	-1.1319340329835081	-0.06446776611694152	
1.7375801658812192E12	-0.19094476094559218	9.325301204819278	-1.3874516162841546	-0.28569692834302335	9.230953809238152	-1.6216200955509104	14.399060882359967	-16.498260725525924	-8.053102018538876	0.01649175412293853	-1.1229385307346327	-0.06896551724137931	
1.7375801658862158E12	-0.09577355517460302	9.361445783132531	-1.2660179765156014	-0.15829551666882857	9.276544691061787	-1.6406514182906728	14.670224383084943	-17.50869637237038	-7.604367864390219	0.01649175412293853	-1.1229385307346327	-0.06896551724137931	
1.7375801658912122E12	-0.08372656710232591	9.361445783132531	-1.2658975066348788	-0.15829551666882857	9.276544691061787	-1.6406514182906728	15.63092734801711	-18.171277124399534	-7.196869564345083	0.031484257871064465	-1.1319340329835081	-0.06746626686656672	
1.7375801658962087E12	-0.10589302515531579	9.253012048192772	-1.4588902555527579	-0.07268302728459555	9.302939412117576	-1.6487585664861573	16.55752545424801	-19.09889017724035	-6.44167253046717	0.031484257871064465	-1.1319340329835081	-0.06746626686656672	
1.7375801659012053E12	-0.16552561611308747	9.397590361445783	-1.5197275453177574	-0.07268302728459555	9.302939412117576	-1.6487585664861573	17.291057419424476	-21.285406658936555	-6.287977777057099	0.02848575712143928	-1.1244377811094453	-0.06596701649175413	
1.7375801659062017E12	-0.20082329116485942	9.3855421686747	-1.6044178714658655	-0.15562927420671915	9.322135572885422	-1.7739635413961428	17.422114785135513	-22.610568162994863	-5.6111722348375785	0.02848575712143928	-1.1244377811094453	-0.06596701649175413	
1.7375801659111982E12	-0.2245558576672453	9.313253012048193	-1.6407997754441423	-0.15562927420671915	9.322135572885422	-1.7739635413961428	16.82784473143355	-23.80321351664734	-4.377122454228017	0.026986506746626684	-1.1229385307346327	-0.07646176911544228	
1.7375801659161946E12	-0.22407397814435423	9.265060240963855	-1.6889877277332508	-0.20946369429128597	9.25494901019796	-1.8536051237728828	16.481433581626003	-24.598310419082324	-3.4266659727074913	0.026986506746626684	-1.1229385307346327	-0.07646176911544228	
1.7375801659211912E12	-0.23624143609735412	9.204819277108435	-1.6770612095416964	-0.20946369429128597	9.25494901019796	-1.8536051237728828	16.37211187424671	-24.051681298658274	-1.6828566436601973	0.014992503748125937	-1.1199400299850075	-0.07196401799100449	
1.7375801659261877E12	-0.2603354122419083	9.228915662650603	-1.677302149303142	-0.20395199651331966	9.168566286742651	-1.8982431304541083	15.917133980855427	-24.10137485506046	-0.5954807807954238	0.014992503748125937	-1.1199400299850075	-0.07196401799100449	
1.737580165931184E12	-0.29647637645873964	9.19277108433735	-1.6776635589453102	-0.20395199651331966	9.168566286742651	-1.8982431304541083	15.762979965761021	-22.859035945005797	1.0373786153222342	0.022488755622188904	-1.1319340329835081	-0.06896551724137931	
1.7375801659361807E12	-0.3212931718876305	9.120481927710843	-1.605622570273093	-0.26092496340656235	9.110977804439111	-1.8209573723970565	16.0684694651477	-21.865164816962064	2.6476936077414948	0.022488755622188904	-1.1319340329835081	-0.06896551724137931	
1.737580165941177E12	-0.3575546059851846	9.240963855421688	-1.5939369918429844	-0.26092496340656235	9.110977804439111	-1.8209573723970565	15.978718122007447	-20.043067748881892	3.9658600810314817	0.014992503748125937	-1.1259370314842578	-0.07646176911544228	
1.7375801659461736E12	-0.4913966434681833	9.216867469879519	-1.4627452917358865	-0.3338951844549213	9.146970605878824	-1.752122994344008	15.716349451141108	-18.65164816962067	5.7004300773134515	0.014992503748125937	-1.1259370314842578	-0.07646176911544228	
1.7375801659511702E12	-0.44405198034413423	9.265060240963855	-1.3779344957070558	-0.3338951844549213	9.146970605878824	-1.752122994344008	14.646050528688676	-17.624648003975484	7.06416612041262	0.022488755622188904	-1.1259370314842578	-0.06296851574212893	
1.7375801659561665E12	-0.45742413710436186	9.361445783132531	-1.2455380967927303	-0.42829581924611143	9.214157168566286	-1.5355554580177557	13.825268764825354	-16.69703495113467	7.9784833949529235	0.022488755622188904	-1.1259370314842578	-0.06296851574212893	
1.737580165961163E12	-0.44790701652726295	9.506024096385543	-0.9924308773941882	-0.42829581924611143	9.214157168566286	-1.5355554580177557	13.448463080878959	-13.914195792612224	8.905606154064428	0.01649175412293853	-1.1109445277361318	-0.05997001499250375	
1.7375801659661597E12	-0.4130912209983821	9.530120481927712	-0.8595525989569718	-0.4405083890715837	9.362927414517095	-1.1558738489612315	13.790922493305146	-12.058969686930594	9.881716978826839	0.01649175412293853	-1.1109445277361318	-0.05997001499250375	
1.737580165971156E12	-0.3781549555887785	9.626506024096386	-0.7387213085920323	-0.4405083890715837	9.362927414517095	-1.1558738489612315	13.860441575512349	-10.435646844459168	10.58677659884158	0.0239880059970015	-1.1169415292353824	-0.07496251874062969	
1.7375801659761526E12	-0.48705972776216355	9.807228915662652	-0.6916175852294288	-0.4098439682686281	9.612477504499099	-0.9569932724808327	13.468221957781687	-9.11048534040086	9.992505600085396	0.02848575712143928	-1.1154422788605696	-0.07496251874062969	
1.737580165981149E12	-0.5584983670307668	10.012048192771084	-0.7766693210197052	-0.4098439682686281	9.612477504499099	-0.9569932724808327	13.08497547937213	-7.288388272320689	10.032314237365917	0.02848575712143928	-1.1154422788605696	-0.07496251874062969	
1.7375801659861455E12	-0.5950007408897664	10.132530120481928	-0.7408897664450422	-0.5337093303040836	9.902819436112777	-0.8838175494609443	11.520908919725384	-5.648500911048534	10.236826251045027	0.029985007496251874	-1.12143928035982	-0.0704647676161919	
1.737580165991142E12	-0.6676440789655974	10.168674698795181	-0.7054716215125475	-0.5337093303040836	9.902819436112777	-0.8838175494609443	9.494566752703424	-4.787145933410634	9.195698389688076	0.029985007496251874	-1.12143928035982	-0.0704647676161919	
1.7375801659961384E12	-0.9685778410110796	10.228915662650603	-0.732577344675171	-0.698297418590011	10.147570485902818	-0.8530274538712781	7.2393593916930055	-3.1306940533377503	8.070186404971976	0.025487256371814093	-1.1109445277361318	-0.07346326836581708	
1.737580166001135E12	-0.9688187807725251	10.27710843373494	-0.7084833685306168	-0.698297418590011	10.147570485902818	-0.8530274538712781	5.702438701290606	-1.3914195792612223	7.091505062363666	0.025487256371814093	-1.1109445277361318	-0.07346326836581708	
1.7375801660061316E12	-1.030499359702584	10.301204819277109	-0.5645218610669054	-0.9524491224814322	10.260347930413916	-0.8475207812401677	4.51417505313222	0.1822097068080172	6.469171562735082	0.0239880059970015	-1.1229385307346327	-0.07646176911544228	
1.737580166011128E12	-1.1147078063278009	10.361445783132531	-0.5774121383042419	-0.9524491224814322	10.260347930413916	-0.8475207812401677	3.6250816161411525	1.010435646844459	5.026294741168041	0.0239880059970015	-1.1229385307346327	-0.07646176911544228	
1.7375801660161245E12	-1.1392836619952462	10.397590361445785	-0.529465125776579	-1.0763707526648172	10.370725854829033	-0.771531650823802	2.8730200935067653	2.1865164816962066	3.66276859725606	0.017991004497751123	-1.118440779610195	-0.06896551724137931	
1.7375801660211208E12	-1.103142697778415	10.602409638554217	-0.5291037161344107	-1.0763707526648172	10.370725854829033	-0.771531650823802	2.6806558060673593	2.6834520457180715	2.991080955285563	0.017991004497751123	-1.118440779610195	-0.06896551724137931	
1.7375801660261174E12	-1.066760793800138	10.55421686746988	-0.5528362826367965	-1.098147349501551	10.50509898020396	-0.7219627789640257	2.2689790497381717	2.037435812489647	1.2797366800879206	0.019490254872563718	-1.118440779610195	-0.07496251874062969	
1.737580166031114E12	-1.0059235040351386	10.650602409638555	-0.6124688735945683	-1.098147349501551	10.50509898020396	-0.7219627789640257	2.1547198510042143	2.0871293688918335	-1.0768855598394835	0.019490254872563718	-1.118440779610195	-0.07496251874062969	
1.7375801660361104E12	-1.017247672823079	10.771084337349398	-0.6848712719089537	-1.0477434242469394	10.617876424715057	-0.8172167784151575	2.270002362947535	1.8883551432830874	-3.4167753452894964	0.026986506746626684	-1.1094452773613193	-0.07796101949025487	
1.737580166041107E12	-0.9807452989640795	10.650602409638555	-0.7206508264836167	-1.0477434242469394	10.617876424715057	-0.8172167784151575	2.40245157656675	0.6791452708298823	-5.941941730181895	0.026986506746626684	-1.1094452773613193	-0.07796101949025487	
1.7375801660461033E12	-0.9929127569170794	10.602409638554217	-0.7087243082920623	-0.9981073424124812	10.649070185962806	-0.8740786068586145	2.2543347762256296	-0.5466291204240517	-7.97559094568704	0.01199400299850075	-1.12143928035982	-0.06446776611694152	
1.7375801660510999E12	-0.9572536722231391	10.493975903614459	-0.6601749463607856	-0.9981073424124812	10.649070185962806	-0.8740786068586145	2.1533640205309825	-0.7454033460327977	-10.129663921398398	0.01199400299850075	-1.12143928035982	-0.06446776611694152	
1.7375801660560964E12	-0.9570127324616936	10.325301204819278	-0.6842689225053398	-0.9975331881525149	10.545890821835632	-0.9027863198569406	2.5821982655675857	-1.6067583236706973	-11.665462085089315	0.013493253373313342	-1.113943028485757	-0.06746626686656672	
1.7375801660610928E12	-0.9566513228195253	10.301204819277109	-0.7204098867221711	-0.9409792669114467	10.39232153569286	-0.9591197953052656	2.797117326591047	-2.451548782507868	-13.249251801524352	0.013493253373313342	-1.113943028485757	-0.06746626686656672	
1.7375801660660894E12	-0.9560489734159114	10.325301204819278	-0.7806448270835566	-0.9409768678711588	10.380323935212957	-0.9592397473196618	2.7432766059046854	-3.362597316547954	-13.990754005476226	0.017991004497751123	-1.12143928035982	-0.07196401799100449	
1.737580166071086E12	-0.8718405267906945	10.253012048192772	-0.7677545498462202	-0.7906271905766682	10.2123575284943	-0.9709499399887592	3.0487662196109095	-3.395726354149412	-13.911844013158342	0.017991004497751123	-1.12143928035982	-0.07196401799100449	
1.7375801660760823E12	-0.6553561511318747	10.204819277108435	-0.7294451277763789	-0.7906271905766682	10.2123575284943	-0.9709499399887592	2.8903881017539157	-3.3460327977472253	-13.387967908929083	0.01649175412293853	-1.1229385307346327	-0.07796101949025487	
1.7375801660810789E12	-0.5466923187199352	10.072289156626507	-0.7524548749944282	-0.5857865455208165	10.044391121775645	-1.051319375229378	2.576267385494909	-3.27977472254431	-12.603767645968666	0.01649175412293853	-1.1229385307346327	-0.07796101949025487	
1.7375801660860752E12	-0.5338020414825987	9.91566265060241	-0.8366633216196453	-0.5857865455208165	10.044391121775645	-1.051319375229378	2.6807114304728947	-3.743581248964717	-12.328417166738168	0.022488755622188904	-1.12143928035982	-0.07196401799100449	
1.7375801660910718E12	-0.49729966762359906	9.819277108433736	-0.8724428761943083	-0.49022987674029184	9.758848230353928	-1.094741728805271	2.7932379634021802	-3.577936060957429	-11.329921914490571	0.022488755622188904	-1.12143928035982	-0.07196401799100449	
1.7375801660960684E12	-0.47248287219470825	9.66265060240964	-0.9444838648665254	-0.49022987674029184	9.758848230353928	-1.094741728805271	2.7861023206034434	-3.876097399370548	-10.616357634616886	0.022488755622188904	-1.1244377811094453	-0.06746626686656672	
1.7375801661010647E12	-0.42393351026343146	9.433734939759036	-0.9801429495604657	-0.40639219479083066	9.420515896820636	-1.1295819463707057	2.3670089325323813	-3.9092264369720056	-10.054645167480079	0.022488755622188904	-1.1244377811094453	-0.06746626686656672	
1.7375801661060613E12	-0.3880334858080457	9.325301204819278	-0.9556875637737431	-0.40639219479083066	9.420515896820636	-1.1295819463707057	2.311270371224582	-3.8264038429683613	-9.074969741141215	0.020989505247376312	-1.1244377811094453	-0.07346326836581708	
1.7375801661110579E12	-0.38743113640443183	9.325301204819278	-1.0159225041351287	-0.4030699012221004	9.19736052789442	-1.1802231836986747	1.630893339209641	-4.108000662580752	-8.41858353811571	0.020989505247376312	-1.1244377811094453	-0.07346326836581708	
1.7375801661160542E12	-0.4593516551959262	9.204819277108435	-1.0527862876362966	-0.4030699012221004	9.19736052789442	-1.1802231836986747	1.3168774536683283	-3.6276296173596156	-7.644866346924713	0.02848575712143928	-1.1319340329835081	-0.07946026986506746	
1.7375801661210508E12	-0.484168450624817	9.096385542168676	-0.9807452989640795	-0.49083430448448184	9.07738452309538	-1.1799937827043179	1.173446528661712	-2.865661752526089	-7.084315959586222	0.02848575712143928	-1.1319340329835081	-0.07946026986506746	
1.737580166126047E12	-0.6053611506319247	9.096385542168676	-0.9096680693376445	-0.49083430448448184	9.07738452309538	-1.1799937827043179	1.2267536541520372	-2.468113301308597	-6.289454236030673	0.029985007496251874	-1.1259370314842578	-0.07796101949025487	
1.7375801661310437E12	-0.7255900915932503	9.084337349397591	-0.9349667442894265	-0.6793322562736414	9.038992201559687	-1.108444923038489	1.2509957688471407	-3.0147424217326484	-5.650878569246994	0.029985007496251874	-1.1259370314842578	-0.07796101949025487	
1.7375801661360403E12	-0.7736575740016359	9.048192771084338	-0.9474956118845946	-0.6793322562736414	9.038992201559687	-1.108444923038489	1.2013471895145322	-3.876097399370548	-5.280201340427197	0.017991004497751123	-1.12143928035982	-0.0704647676161919	
1.7375801661410366E12	-0.8593116591955262	9.048192771084338	-0.8158220322546058	-0.8048474797411085	9.031793641271745	-1.0682495695265624	1.1913420191319568	-3.263210203743581	-4.279684302169642	0.017991004497751123	-1.12143928035982	-0.0704647676161919	
1.7375801661460332E12	-0.9073791416039119	9.048192771084338	-0.8283508998497741	-0.8048474797411085	9.031793641271745	-1.0682495695265624	1.4784233529849693	-3.0313069405333772	-3.8913398926776512	0.031484257871064465	-1.1304347826086956	-0.07196401799100449	
1.7375801661510295E12	-0.9438815154629115	9.048192771084338	-0.7925713452751111	-0.9073269166140112	9.065386922615476	-1.025109134657402	1.988814655051575	-3.611065098558887	-2.8630887823397275	0.031484257871064465	-1.1304347826086956	-0.07196401799100449	
1.7375801661560261E12	-0.979420130276129	9.10843373493976	-0.8531676952786649	-0.9073269166140112	9.065386922615476	-1.025109134657402	2.257743246748761	-4.207387775385125	-2.1908637254121186	0.031484257871064465	-1.1229385307346327	-0.07346326836581708	
1.7375801661610227E12	-1.0274876126845147	9.144578313253012	-0.8656965628738331	-0.9704165571039485	9.094181163767246	-1.1038834611998032	2.051253907445973	-4.306774888189498	-1.4500461810445155	0.031484257871064465	-1.1229385307346327	-0.07346326836581708	
1.737580166166019E12	-1.0517020587097916	9.072289156626507	-0.8538905145630015	-0.9704165571039485	9.094181163767246	-1.1038834611998032	1.0271934362668254	-4.439291038595329	-1.647368128979616	0.0239880059970015	-1.1169415292353824	-0.06446776611694152	
1.7375801661710156E12	-1.051461118948346	9.036144578313253	-0.8779844907075557	-1.0472057612499446	9.055788842231554	-1.0750468104819948	0.6866216990990505	-5.13500082822594	-1.280852911436449	0.0239880059970015	-1.1169415292353824	-0.06446776611694152	
1.7375801661760122E12	-1.0153201547315147	9.048192771084338	-0.8776230810653874	-1.0472057612499446	9.055788842231554	-1.0750468104819948	0.147997463948156	-5.482855723041245	-1.017204281492476	0.035982008995502246	-1.1274362818590704	-0.06596701649175413	
1.7375801661810085E12	-0.9672526723231292	9.132530120481928	-0.8650942134702192	-0.9714673992855958	9.043791241751649	-1.0513413521174388	-0.4607121902222711	-5.1515653470266685	0.12941197781670222	0.035982008995502246	-1.1274362818590704	-0.06596701649175413	
1.7375801661860051E12	-0.9913466484676834	9.120481927710843	-0.8653351532316648	-0.9714673992855958	9.043791241751649	-1.0513413521174388	-0.5546423114314839	-4.538678151399702	-1.197330878291113	0.017991004497751123	-1.1259370314842578	-0.06896551724137931	
1.7375801661910015E12	-0.9682164313689113	9.072289156626507	-0.7687183088920023	-0.9771914987379949	9.038992201559687	-0.9960832617145744	-1.4502219818988793	-3.6276296173596156	-0.46019078407835734	0.017991004497751123	-1.1259370314842578	-0.06896551724137931	
1.737580166195998E12	-0.9323164069135255	9.096385542168676	-0.7442629231052799	-0.9771914987379949	9.038992201559687	-0.9960832617145744	-1.566088819342658	-2.9981779029319195	0.406737983270386	0.01649175412293853	-1.118440779610195	-0.07946026986506746	
1.7375801662009946E12	-0.9685778410110796	9.204819277108435	-0.732577344675171	-0.9399761186714038	9.079784043191362	-0.8938037661988605	-2.0857243129495684	-2.1036938876925624	0.30290602696295676	0.01649175412293853	-1.118440779610195	-0.07946026986506746	
1.737580166205991E12	-0.980986238725525	9.289156626506024	-0.6965568503390624	-0.9399761186714038	9.079784043191362	-0.8938037661988605	-2.5810012682990893	-1.4576776544641377	0.8260073812106287	0.01199400299850075	-1.1094452773613193	-0.07646176911544228	
1.7375801662109875E12	-0.9571332023424164	9.204819277108435	-0.6722219344330627	-0.9895396188839745	9.146970605878824	-0.8405710188497748	-2.1838373625440557	-1.0435646844459168	0.9258495775296414	0.01199400299850075	-1.1094452773613193	-0.07646176911544228	
1.7375801662159841E12	-0.993635576201416	9.228915662650603	-0.6364423798583997	-0.9895396188839745	9.146970605878824	-0.8405710188497748	-2.2632430403345234	-0.31472585721384794	1.2094495158412968	0.019490254872563718	-1.12143928035982	-0.0704647676161919	
1.7375801662209805E12	-1.0898910108989102	9.253012048192772	-0.649453126976459	-1.0776628958835441	9.206958608278343	-0.822397930996006	-2.4124332747535147	-0.016564518800728838	0.8145372762702645	0.019490254872563718	-1.12143928035982	-0.0704647676161919	
1.737580166225977E12	-1.0777235529459102	9.301204819277109	-0.6613796451680133	-1.0776628958835441	9.206958608278343	-0.822397930996006	-2.9407285200807283	-0.2650323008116614	1.5766804919932231	0.031484257871064465	-1.113943028485757	-0.0704647676161919	
1.7375801662309734E12	-1.0426668176555838	9.253012048192772	-0.5525953428753511	-1.032229422031233	9.250149970005998	-0.7846028014406676	-2.953476743441378	0.4306774888189498	1.320109259911127	0.031484257871064465	-1.113943028485757	-0.0704647676161919	
1.73758016623597E12	-0.9830342266978122	9.253012048192772	-0.4917580531103516	-1.032229422031233	9.250149970005998	-0.7846028014406676	-2.5177366191283848	1.2920324664568494	2.156510304875243	0.03298350824587706	-1.1109445277361318	-0.07946026986506746	
1.7375801662409666E12	-1.0079714920074256	9.168674698795181	-0.4076700763658574	-0.990335026997199	9.216556688662267	-0.6853271720800046	-1.3679488320558633	1.1926453536524764	2.0322492086491004	0.03298350824587706	-1.1109445277361318	-0.07946026986506746	
1.737580166245963E12	-0.9107522982641495	9.216867469879519	-0.491035233826015	-0.990335026997199	9.216556688662267	-0.6853271720800046	-0.9514214063722329	0.5631936392247805	1.7271329802554423	0.025487256371814093	-1.1154422788605696	-0.07196401799100449	
1.7375801662509595E12	-0.8750932135702092	9.228915662650603	-0.4424858718947382	-0.8871643824242794	9.1997600479904	-0.6475545508414553	-1.0545228498128891	0.7619678648335265	1.317522347291978	0.025487256371814093	-1.1154422788605696	-0.07196401799100449	
1.7375801662559558E12	-0.8026908152558238	9.253012048192772	-0.4538100406826787	-0.8871643824242794	9.1997600479904	-0.6475545508414553	-1.2686107654906178	1.0435646844459168	1.2868039610066373	0.022488755622188904	-1.1229385307346327	-0.0704647676161919	
1.7375801662609524E12	-0.7793196583956062	9.337349397590362	-0.3812871724875705	-0.7743175525615847	9.288542291541692	-0.6316974296574885	-1.6783451945797447	1.010435646844459	0.9126205299499665	0.022488755622188904	-1.1229385307346327	-0.0704647676161919	
1.737580166265949E12	-0.7082424287691713	9.518072289156628	-0.2600944724804628	-0.7743175525615847	9.288542291541692	-0.6316974296574885	-1.7812656257525337	0.8613549776378996	0.48490867019975153	0.019490254872563718	-1.12143928035982	-0.0704647676161919	
1.7375801662709453E12	-0.6239135122632316	9.493975903614459	-0.2592511833154034	-0.6310507003790327	9.451709658068385	-0.5202132489467514	-1.937470111046008	1.1098227596488321	0.7914215180770453	0.019490254872563718	-1.12143928035982	-0.0704647676161919	
1.737580166275942E12	-0.5877725480464002	9.55421686746988	-0.25888977367323507	-0.6310507003790327	9.451709658068385	-0.5202132489467514	-1.8715636987345246	1.2754679476561206	0.3263545595167895	0.0239880059970015	-1.118440779610195	-0.07346326836581708	
1.7375801662809385E12	-0.5635581020211232	9.566265060240964	-0.27069582198406666	-0.5342765851416871	9.550089982003598	-0.509034484255141	-1.8893820752893973	1.4908066920655954	0.5767986468570209	0.0239880059970015	-1.118440779610195	-0.07346326836581708	
1.7375801662859348E12	-0.4917580531103516	9.566265060240964	-0.22178505041062158	-0.5342765851416871	9.550089982003598	-0.509034484255141	-3.021838214508347	1.8552261056816297	0.4992885258729825	0.031484257871064465	-1.1244377811094453	-0.07346326836581708	
1.7375801662909314E12	-0.41947612467668893	9.55421686746988	-0.22106223112628495	-0.397302078643617	9.538092381523695	-0.42935334264593983	-3.9450669298084033	2.2859035945005797	0.9385459670577743	0.031484257871064465	-1.1244377811094453	-0.07346326836581708	
1.7375801662959277E12	-0.37201099167191715	9.46987951807229	-0.1482984231697312	-0.397302078643617	9.538092381523695	-0.42935334264593983	-4.744105191985531	3.2300811661421234	1.2099066411257913	0.01649175412293853	-1.12143928035982	-0.0704647676161919	
1.7375801663009243E12	-0.41911471503452064	9.506024096385543	-0.2572031953431163	-0.3377133311990232	9.458908218356328	-0.40648124605345587	-4.302010772280313	3.4288553917508695	1.4108781468673974	0.01649175412293853	-1.12143928035982	-0.0704647676161919	
1.737580166305921E12	-0.35972306383819447	9.46987951807229	-0.17227192943356268	-0.3377133311990232	9.458908218356328	-0.40648124605345587	-4.37964839629642	4.025178068577108	1.517672707743022	0.026986506746626684	-1.1304347826086956	-0.06746626686656672	
1.7375801663109172E12	-0.2998495331189773	9.409638554216867	-0.13552861581311748	-0.3003382433157373	9.379724055188962	-0.4276605824810371	-4.9307432924256815	4.522113632598972	1.496993867376701	0.026986506746626684	-1.1304347826086956	-0.06746626686656672	
1.7375801663159138E12	-0.44357010082124315	9.313253012048193	-0.2213031708877305	-0.3003382433157373	9.379724055188962	-0.4276605824810371	-5.709970557752285	5.797581580255093	1.3186484245392704	0.04047976011994003	-1.12143928035982	-0.07346326836581708	
1.7375801663209102E12	-0.539464125876569	9.27710843373494	-0.2704548822226211	-0.41705786008111456	9.25494901019796	-0.4808252407479666	-6.246414040740666	7.039920490309756	1.3642218382319142	0.04047976011994003	-1.12143928035982	-0.07346326836581708	
1.7375801663259067E12	-0.599458126476509	9.204819277108435	-0.2951512077707892	-0.41705786008111456	9.25494901019796	-0.4808252407479666	-6.503211971310322	8.729501407984097	1.0103242366983909	0.013493253373313342	-1.1154422788605696	-0.07496251874062969	
1.7375801663309033E12	-0.7681159594883885	9.132530120481928	-0.296837786100908	-0.6605085767414149	9.19256148770246	-0.5484741652387172	-6.385103219559304	10.10435646844459	1.4505976067727098	0.013493253373313342	-1.1154422788605696	-0.07496251874062969	
1.7375801663358997E12	-0.923642575501486	9.337349397590362	-0.406826787200798	-0.6605085767414149	9.19256148770246	-0.5484741652387172	-6.553910855483621	12.522776213351001	1.4860319495872425	0.022488755622188904	-1.12143928035982	-0.07796101949025487	
1.7375801663408962E12	-1.1288027823723652	9.433734939759036	-0.37273381095625374	-1.0043819489970638	9.271745650869825	-0.5603482776294846	-6.954116525370711	14.742421732648666	1.6903661664738916	0.022488755622188904	-1.12143928035982	-0.07796101949025487	
1.7375801663458928E12	-1.225178686950582	9.397590361445783	-0.37369757000203596	-1.0043819489970638	9.271745650869825	-0.5603482776294846	-6.801911195521705	16.465131687924465	1.7837688630434045	0.01199400299850075	-1.1229385307346327	-0.08245877061469264	
1.7375801663508892E12	-1.3579364955070758	9.566265060240964	-0.3509287625454322	-1.3326621080947938	9.432513497300539	-0.5435689601563855	-6.549125174245393	18.336922312406823	2.538857393911502	0.01199400299850075	-1.1229385307346327	-0.08245877061469264	
1.7375801663558857E12	-1.5509292444249552	9.74698795180723	-0.3287623044924423	-1.3326621080947938	9.432513497300539	-0.5435689601563855	-6.445581222244777	19.56269670366076	2.9042171708789724	0.022488755622188904	-1.1154422788605696	-0.06596701649175413	
1.737580166360882E12	-1.5264738586382325	9.783132530120483	-0.36466232894782813	-1.5316498692310254	9.653269346130774	-0.5248968386796762	-6.421777808751951	19.016067583236705	3.586662957890471	0.022488755622188904	-1.1154422788605696	-0.06596701649175413	
1.7375801663658787E12	-1.4673231472033519	9.759036144578314	-0.2556370868937203	-1.5316498692310254	9.653269346130774	-0.5248968386796762	-6.396260993466412	18.883551432830874	4.097768565630546	0.019490254872563718	-1.118440779610195	-0.07946026986506746	
1.7375801663708752E12	-1.5028617620165694	9.867469879518072	-0.3162334368972741	-1.493161169339145	9.785242951409717	-0.4862833344284293	-6.34033325360701	19.39705151565347	4.630568852278339	0.019490254872563718	-1.118440779610195	-0.07946026986506746	
1.7375801663758716E12	-1.3244458686661453	9.91566265060241	-0.08553361531316747	-1.493161169339145	9.785242951409717	-0.4862833344284293	-5.947671127316388	19.49643862845784	5.180588995038527	0.019490254872563718	-1.1259370314842578	-0.07496251874062969	
1.7375801663808682E12	-1.2267447953999782	9.927710843373495	-0.2170867250624335	-1.2650931833945611	9.866826634673064	-0.4578119619116672	-5.275059388294266	19.927116117276793	5.300732091294845	0.019490254872563718	-1.1259370314842578	-0.07496251874062969	
1.7375801663858647E12	-1.106756794200098	10.036144578313253	-0.16769407396609737	-1.2650931833945611	9.866826634673064	-0.4578119619116672	-5.123404709964225	19.844293523273148	5.449199939760959	0.0239880059970015	-1.1319340329835081	-0.0704647676161919	
1.737580166390861E12	-1.0590507214338807	10.048192771084338	-0.11902424215409785	-1.0821061854010414	10.001199760047989	-0.3692865729040496	-5.001040769954985	19.612390260062945	5.463954484012996	0.0239880059970015	-1.1319340329835081	-0.0704647676161919	
1.7375801663958577E12	-0.9990567208339407	10.144578313253012	-0.09432791660592976	-1.0821061854010414	10.001199760047989	-0.3692865729040496	-4.353891194236755	19.628954778863672	5.06752677436463	0.014992503748125937	-1.1229385307346327	-0.06896551724137931	
1.737580166400854E12	-0.9150892139701692	10.19277108433735	-0.05734366322403904	-0.9885294830322618	10.159568086382723	-0.3137106058926777	-3.4214432435257764	20.159019380486995	5.237739360234632	0.014992503748125937	-1.1229385307346327	-0.06896551724137931	
1.7375801665157734E12	-0.4754946192127775	11.771084337349398	-0.6433091630595976	-1.0707845252182537	11.104979004199159	-0.4734758176092683	-1.0359771669816993	8.182872287560047	-5.13122664026804	0.0239880059970015	-1.1124437781109444	-0.0704647676161919	
1.7375801665207698E12	-0.12577055547457303	12.060240963855422	-0.6759565007354686	-0.49014082518865926	11.877624475104978	-0.8682474241698104	-4.231688564429637	0.513500082822594	-10.215523342641147	0.0239880059970015	-1.1124437781109444	-0.0704647676161919	
1.7375801665257664E12	0.3558680276550658	12.120481927710845	-0.6470437293620035	-0.49014082518865926	11.877624475104978	-0.8682474241698104	-6.412700771688934	-4.074871624979294	-14.166369998028458	0.010494752623688156	-1.1319340329835081	-0.06446776611694152	
1.7375801665307627E12	0.6327078135559938	12.204819277108435	-0.6201789459608256	0.3649366504310228	12.30473905218956	-0.8969479949922486	-7.65678986102288	-6.526420407487162	-16.863127220836063	0.010494752623688156	-1.1319340329835081	-0.06446776611694152	
1.7375801665357593E12	0.9095475994569218	11.927710843373495	-0.5933141625596476	0.3649366504310228	12.30473905218956	-0.8969479949922486	-8.296067542590396	-7.321517309922147	-18.785282494405905	0.014992503748125937	-1.1334332833583207	-0.07196401799100449	
1.7375801665407559E12	1.0537500466820788	11.614457831325302	-0.555727559774143	0.9657749694514955	11.911217756448709	-0.8002958166856347	-7.556515704074663	-7.851581911545469	-20.764968643069697	0.014992503748125937	-1.1334332833583207	-0.07196401799100449	
1.7375801665457522E12	1.0545933358471382	11.337349397590362	-0.6400564762800828	0.9657749694514955	11.911217756448709	-0.8002958166856347	-5.472896342534262	-10.584727513665728	-22.388773097263048	0.01649175412293853	-1.128935532233883	-0.07196401799100449	
1.7375801665507488E12	0.9134026356400504	11.253012048192772	-0.9788177808725151	1.015716206246693	11.325734853029394	-0.987888834274598	-2.6784156035278204	-15.024018552261056	-23.123217595150575	0.01649175412293853	-1.128935532233883	-0.07196401799100449	
1.7375801665557454E12	0.6987253081920723	11.265060240963855	-1.197832024026513	1.015716206246693	11.325734853029394	-0.987888834274598	-2.075199232780075	-18.916680470432333	-23.720505512191572	0.014992503748125937	-1.1004497751124438	-0.07796101949025487	
1.7375801665607417E12	0.5793396563958062	11.349397590361447	-1.3074596154842346	0.681651959637002	11.25374925014997	-1.4902192289632608	-4.590267590837186	-20.473745237700843	-23.362214882590706	0.014992503748125937	-1.1004497751124438	-0.07796101949025487	
1.7375801665657383E12	0.47067582398386665	11.228915662650603	-1.2844498682661853	0.681651959637002	11.25374925014997	-1.4902192289632608	-8.41172668045046	-20.6228259069074	-22.53330438986983	0.01199400299850075	-1.128935532233883	-0.07346326836581708	
1.7375801665707346E12	0.3833351604598576	11.144578313253012	-0.9841184556243171	0.5150947446168656	11.196160767846429	-1.360972796663141	-13.70445729984023	-20.092761305284082	-20.05962989346532	0.01199400299850075	-1.128935532233883	-0.07346326836581708	
1.7375801665757312E12	0.22395350826363147	11.036144578313253	-0.7086038384113396	0.5150947446168656	11.196160767846429	-1.360972796663141	-17.25047015585507	-23.571310253437137	-17.67886496579481	0.025487256371814093	-1.1124437781109444	-0.06446776611694152	
1.7375801665807278E12	0.006384903678306869	10.91566265060241	-0.6384903678306868	0.24444315548930604	10.970605878824234	-0.8768921855507517	-17.6231568921014	-25.857213847937714	-15.632243408543138	0.025487256371814093	-1.1124437781109444	-0.06446776611694152	
1.737580166585724E12	-0.10203798897218712	10.566265060240964	-0.6395745967571917	0.24444315548930604	10.970605878824234	-0.8768921855507517	-16.132803440775355	-27.099552757992377	-14.591018862740317	0.017991004497751123	-1.12143928035982	-0.05997001499250375	
1.7375801665907207E12	-0.17407897764440422	10.180722891566266	-0.6643913921860826	-0.10637662605873467	10.454709058188362	-0.887866156647562	-14.874688000929467	-25.989729998343545	-13.296896691126786	0.017991004497751123	-1.12143928035982	-0.05997001499250375	
1.7375801665957173E12	-0.4276680765658374	10.0	-0.6066863193198753	-0.10637662605873467	10.454709058188362	-0.887866156647562	-15.97302449068079	-24.48235878747722	-12.192191054432573	0.0239880059970015	-1.1259370314842578	-0.06596701649175413	
1.7375801666007136E12	-0.8158220322546058	9.843373493975903	-0.3455076179129075	-0.4515568364372231	9.931613677264547	-0.7189249217878053	-18.57027432112273	-22.41179393738612	-11.27272102708343	0.0239880059970015	-1.1259370314842578	-0.06596701649175413	
1.7375801666057102E12	-1.2379484943071957	9.91566265060241	-0.30153611144909603	-0.4515568364372231	9.931613677264547	-0.7189249217878053	-19.897808219226444	-19.711777372867317	-10.21917807735556	0.022488755622188904	-1.1274362818590704	-0.07946026986506746	
1.7375801666107065E12	-1.4196170744371346	9.903614457831326	-0.20696725508172073	-1.1568009676072026	9.869226154769045	-0.4451710191779779	-19.815951080012894	-16.581083319529565	-7.685137021681614	0.022488755622188904	-1.1274362818590704	-0.07946026986506746	
1.7375801666157031E12	-1.768256909248834	9.903614457831326	-0.2827428100563438	-1.1568009676072026	9.869226154769045	-0.4451710191779779	-18.340450212634558	-12.605598807354646	-5.1586540811078665	0.014992503748125937	-1.1229385307346327	-0.06746626686656672	
1.7375801666206997E12	-1.9358305133342086	9.927710843373495	-0.3928522810369565	-1.7121689328575262	9.890821835632872	-0.5058720638211509	-16.2064305823691	-8.679807851581911	-2.6341239989243537	0.014992503748125937	-1.1229385307346327	-0.06746626686656672	
1.737580166625696E12	-2.043651056581089	9.963855421686748	-0.454171450324847	-1.7121689328575262	9.890821835632872	-0.5058720638211509	-13.991682546223721	-5.549113798244161	-0.5254666639983305	0.0239880059970015	-1.1259370314842578	-0.07196401799100449	
1.7375801666306926E12	-2.1019584788509103	10.024096385542169	-0.6475256088848946	-2.0033512936772526	9.948410317936412	-0.7273544847285734	-12.791026245529347	-2.7994036773231734	0.38899515017810904	0.0239880059970015	-1.1259370314842578	-0.07196401799100449	
1.737580166635689E12	-2.160386371001454	10.072289156626507	-0.8288327793726651	-2.0033512936772526	9.948410317936412	-0.7273544847285734	-12.498390846905751	-1.0766937220473745	0.22193308261192451	0.014992503748125937	-1.1259370314842578	-0.0704647676161919	
1.7375801666406855E12	-2.170023961459276	10.060240963855422	-1.0698930106989302	-2.11892156024187	10.046790641871624	-1.0689335352506	-13.056868033491941	0.5631936392247805	-0.591910280208555	0.014992503748125937	-1.1259370314842578	-0.0704647676161919	
1.7375801666456821E12	-2.1312326598665434	10.036144578313253	-1.3345653386468581	-2.11892156024187	10.046790641871624	-1.0689335352506	-13.536592873287299	0.6957097896306111	-1.62402048137725	0.01199400299850075	-1.128935532233883	-0.07346326836581708	
1.7375801666506785E12	-1.9118570070703773	10.024096385542169	-1.5853836303116675	-2.1014838489280017	10.077984403119375	-1.5943987776184094	-12.779699945310428	-1.126387278449561	-3.806422008007802	0.01199400299850075	-1.128935532233883	-0.07346326836581708	
1.737580166655675E12	-1.7034441134199834	10.216867469879519	-1.9447452845076938	-2.1014838489280017	10.077984403119375	-1.5943987776184094	-11.699443879974444	-2.2859035945005797	-6.165872339462294	0.020989505247376312	-1.1169415292353824	-0.07196401799100449	
1.7375801666606716E12	-1.460456364002154	10.421686746987952	-2.147134684121949	-1.6964839392997972	10.236352729454108	-2.213909270575966	-11.200764353413417	-1.42454861686268	-8.560624383007262	0.020989505247376312	-1.1169415292353824	-0.07196401799100449	
1.737580166665668E12	-1.110491360502504	10.650602409638555	-2.2038759979423745	-1.6964839392997972	10.236352729454108	-2.213909270575966	-12.140870005726581	0.4803710452211363	-9.496460376805803	0.020989505247376312	-1.1304347826086956	-0.0704647676161919	
1.7375801666706646E12	-0.7987153091919723	10.602409638554217	-2.056179924176257	-1.0831975724160594	10.605878824235152	-2.3932391621069535	-12.947046232711019	4.074871624979294	-8.511303222006884	0.020989505247376312	-1.1304347826086956	-0.0704647676161919	
1.737580166675661E12	-0.5101899448609356	10.55421686746988	-1.993053706677525	-1.0831975724160594	10.605878824235152	-2.3932391621069535	-11.382105867992118	7.8847109491469265	-7.271802174754433	0.01649175412293853	-1.1229385307346327	-0.05997001499250375	
1.7375801666806575E12	-0.2923804005141655	10.433734939759036	-2.087261153402732	-0.4452908251998087	10.526694661067786	-2.186959894743973	-8.524855774210645	12.174921318535695	-5.094820741263313	0.01649175412293853	-1.1229385307346327	-0.05997001499250375	
1.737580166685654E12	-0.10938665169627615	10.253012048192772	-2.3143468785651553	-0.4452908251998087	10.526694661067786	-2.186959894743973	-4.824374202338575	16.8295511015405	-3.014340868745861	0.0239880059970015	-1.1334332833583207	-0.06596701649175413	
1.7375801666906504E12	-0.10902524205410784	10.0	-2.3504878427819866	-0.06619363203765616	10.231553689262146	-2.5505955343758524	-2.6652057963700266	21.815471260559878	-1.473294788724756	0.0239880059970015	-1.1334332833583207	-0.06596701649175413	
1.737580166695647E12	-0.0362614340975541	9.807228915662652	-2.3979529757867586	-0.06619363203765616	10.231553689262146	-2.5505955343758524	-1.532147836663323	27.132681795593836	-1.4559667165161023	0.025487256371814093	-1.1454272863568216	-0.06596701649175413	
1.7375801667006436E12	-0.15600849553598856	9.590361445783133	-2.471439603027649	-0.034927407253066554	9.751649670065985	-2.6127520391942474	-0.8723015480963249	31.35663408977969	-1.590672142894318	0.025487256371814093	-1.1454272863568216	-0.06596701649175413	
1.73758016670564E12	-0.20359409842148316	9.493975903614459	-2.5321564229119256	-0.034927407253066554	9.751649670065985	-2.6127520391942474	0.6725172492961932	33.99039257909558	-1.4018014992977144	0.017991004497751123	-1.1259370314842578	-0.06896551724137931	
1.7375801667106365E12	-0.15299674851791928	9.3855421686747	-2.7726143048345766	-0.12892773772080776	9.391721655668865	-2.762620042366079	1.6736235553359213	34.95113466953785	-1.9718501737146497	0.017991004497751123	-1.1259370314842578	-0.06896551724137931	
1.7375801667156328E12	-0.08107622972642495	9.19277108433735	-2.735750521333409	-0.12892773772080776	9.391721655668865	-2.762620042366079	2.3131497128693708	35.59715090276627	-3.1373296330320475	0.0074962518740629685	-1.1274362818590704	-0.05997001499250375	
1.7375801667206294E12	-0.2372051951431363	9.072289156626507	-2.7855045820719133	-0.13105331069626916	9.139772045590881	-3.002761716918644	2.613903653301869	35.100215338744405	-4.116245881488598	0.0074962518740629685	-1.1274362818590704	-0.05997001499250375	
1.737580166725626E12	-0.3097280633382445	8.963855421686748	-2.7621334252116956	-0.13105331069626916	9.139772045590881	-3.002761716918644	2.3122460411734065	33.80818287228756	-6.109749599729653	0.020989505247376312	-1.128935532233883	-0.06296851574212893	
1.7375801667306223E12	-0.40622443779718415	8.855421686746988	-2.7510501961852007	-0.30021677540920094	8.940611877624475	-2.974149682195841	2.2242537096105846	30.61123074374689	-8.030271420476506	0.020989505247376312	-1.128935532233883	-0.06296851574212893	
1.737580166735619E12	-0.47995200479952005	8.771084337349398	-2.607209158602212	-0.30021677540920094	8.940611877624475	-2.974149682195841	2.0889546896976627	27.994036773231734	-9.81430511065451	0.01199400299850075	-1.118440779610195	-0.06596701649175413	
1.7375801667406152E12	-0.5874111384042319	8.686746987951807	-2.7046692921069337	-0.48174884168339593	8.707858428314337	-2.904474774952607	2.3768363684918623	25.045552426702002	-11.037388763428227	0.01199400299850075	-1.118440779610195	-0.06596701649175413	
1.7375801667456118E12	-0.6113846446680633	8.66265060240964	-2.7169572199406566	-0.48174884168339593	8.707858428314337	-2.904474774952607	2.989912171004461	21.997680967367895	-12.620619856954498	0.017991004497751123	-1.1334332833583207	-0.05847076461769115	
1.7375801667506084E12	-0.6359605003355087	8.493975903614459	-2.6690102074129936	-0.6262221897660408	8.580683863227353	-2.9556341606586978	3.5719589915937062	18.635083650819944	-14.163739894439507	0.017991004497751123	-1.1334332833583207	-0.05847076461769115	
1.7375801667556047E12	-0.6364423798583997	8.63855421686747	-2.620822255123885	-0.6262221897660408	8.580683863227353	-2.9556341606586978	4.420701150973003	15.073712108663242	-14.811309584283551	0.010494752623688156	-1.1244377811094453	-0.06296851574212893	
1.7375801667606013E12	-0.6009037650451822	8.530120481927712	-2.560225905120331	-0.6261542073530564	8.484703059388123	-2.843559840199373	4.18165883514484	12.787808514162663	-15.409375091819363	0.010494752623688156	-1.1244377811094453	-0.06296851574212893	
1.737580166765598E12	-0.4817590530103616	8.590361445783133	-2.4265043375180553	-0.6261542073530564	8.484703059388123	-2.843559840199373	3.6128046876879503	11.446082491303628	-15.185522367569856	0.013493253373313342	-1.1319340329835081	-0.06896551724137931	
1.7375801667705942E12	-0.361048232526145	8.674698795180724	-2.449393614855382	-0.4333471666810826	8.47990401919616	-2.668669379571736	3.9876302200964835	11.943018055325492	-14.3832364047479	0.013493253373313342	-1.1319340329835081	-0.06896551724137931	
1.7375801667755908E12	-0.1572131943432163	8.518072289156628	-2.3509697223048778	-0.4333471666810826	8.47990401919616	-2.668669379571736	4.024930081943351	11.992711611727678	-13.519041884993598	0.020989505247376312	-1.1259370314842578	-0.07196401799100449	
1.7375801667805872E12	-0.14528667615166194	8.674698795180724	-2.338802264351878	-0.1966922875755736	8.578284343131372	-2.607648900667049	3.816423280535072	11.595163160510186	-12.576478130076868	0.020989505247376312	-1.1259370314842578	-0.07196401799100449	
1.7375801667855837E12	0.10649537455892966	8.66265060240964	-2.2158025161339285	-0.1966922875755736	8.578284343131372	-2.607648900667049	3.5118170842801146	11.131356634089778	-11.212336299374405	0.031484257871064465	-1.1499250374812593	-0.07946026986506746	
1.7375801667905803E12	0.07143863926860326	8.795180722891567	-2.324586818426591	-9.573328683189775E-4	8.707858428314337	-2.4636807006949057	4.293753119167387	11.578598641709458	-9.773474244456834	0.031484257871064465	-1.1499250374812593	-0.07946026986506746	
1.7375801667955767E12	0.09493026600954363	9.060240963855422	-2.26411093830376	-9.573328683189775E-4	8.707858428314337	-2.4636807006949057	5.0312023096687195	12.191485837336424	-8.480108455386457	0.017991004497751123	-1.1379310344827587	-0.06446776611694152	
1.7375801668005732E12	0.16600749563597858	9.27710843373494	-2.142918238296652	0.20223583006980844	8.935812837432513	-2.461676030049314	4.855873166617929	13.582905416597647	-6.261129831777662	0.017991004497751123	-1.1379310344827587	-0.06446776611694152	
1.7375801668055696E12	0.12938465189625617	9.530120481927712	-2.095091695649712	0.20223583006980844	8.935812837432513	-2.461676030049314	4.262662022704762	13.500082822594003	-5.132971030047477	0.01649175412293853	-1.1094452773613193	-0.06596701649175413	
1.7375801668105662E12	0.05674131382042519	9.74698795180723	-2.0596735507172172	0.1822873646648347	9.398920215956808	-2.3880402886689858	3.360828470769241	13.632598972999833	-2.2390492208750934	0.01649175412293853	-1.1094452773613193	-0.06596701649175413	
1.7375801668155627E12	0.019877530319257233	9.93975903614458	-1.987753031925723	0.1822873646648347	9.398920215956808	-2.3880402886689858	3.0072291774183353	14.52708298823919	-0.5697783850188537	0.014992503748125937	-1.1409295352323838	-0.06446776611694152	
1.737580166820559E12	-0.08914771173485062	10.144578313253012	-1.9286023204908425	0.07690878251410567	9.859628074385123	-2.1999425899085168	2.8034110684695026	14.626470101043564	2.966703260247311	0.014992503748125937	-1.1409295352323838	-0.06446776611694152	
1.7375801668255557E12	-0.07698025378185072	10.216867469879519	-1.940528838682397	-0.07298950311667929	9.859628074385123	-2.095328539316151	2.7905208559812715	15.868809011098227	5.7871180772174435	0.020989505247376312	-1.1304347826086956	-0.06446776611694152	
1.7375801668305522E12	-0.042405398014415424	10.240963855421688	-1.783556584100626	0.01701474950358056	10.09478104379124	-2.0920769670958874	2.7314570095644264	15.570647672685107	7.09932201446092	0.020989505247376312	-1.1304347826086956	-0.06446776611694152	
1.7375801668355486E12	0.06517420547101917	10.012048192771084	-1.6981434386681813	0.07609300682867393	10.044391121775645	-1.9282069234198396	2.6322711917799837	15.222792777869802	9.360935952170095	0.010494752623688156	-1.128935532233883	-0.06746626686656672	
1.7375801668405452E12	0.017588602585524582	10.120481927710843	-1.758860258552458	0.07609300682867393	10.044391121775645	-1.9282069234198396	2.3354372937972947	17.028325327149243	11.47924152379275	0.010494752623688156	-1.128935532233883	-0.06746626686656672	
1.7375801668455415E12	0.06613796451680133	9.951807228915664	-1.7945193432463982	0.12257245947946055	9.931613677264547	-1.9427107337882696	2.668977723767657	16.38230909392082	11.815857025990837	0.026986506746626684	-1.1229385307346327	-0.07346326836581708	
1.737580166850538E12	0.2096175924576217	9.759036144578314	-1.684650812027231	0.12257245947946055	9.931613677264547	-1.9427107337882696	2.8808356987795634	16.465131687924465	12.069569478858345	0.026986506746626684	-1.1229385307346327	-0.07346326836581708	
1.7375801668555347E12	0.16142964016851327	9.542168674698795	-1.6851326915501221	0.19532519983642604	9.612477504499099	-1.885197636163104	2.589367352903769	16.233228424714262	12.119926271644546	0.014992503748125937	-1.1244377811094453	-0.06896551724137931	
1.737580166860531E12	0.1745608571672953	9.409638554216867	-1.7934351143198932	0.19532519983642604	9.612477504499099	-1.885197636163104	2.422619743105628	17.061454364750702	11.949358001841489	0.014992503748125937	-1.1244377811094453	-0.06896551724137931	
1.7375801668655276E12	0.19865483331184952	9.27710843373494	-1.7931941745584477	0.21543130349467188	9.28374325134973	-1.966715290207035	2.2689166314940032	18.618519132019212	12.005733481533808	0.017991004497751123	-1.1259370314842578	-0.05547226386806597	
1.7375801668705242E12	0.19853436343112676	9.19277108433735	-1.7811471864861705	0.21543130349467188	9.28374325134973	-1.966715290207035	2.084303778646254	18.6682126884214	12.090295948544602	0.017991004497751123	-1.1259370314842578	-0.05547226386806597	
1.7375801668755205E12	0.25901024355395785	9.060240963855422	-1.804638813227111	0.2903755829268924	9.07738452309538	-2.0187791463446216	3.1259067201186483	18.419744906410468	12.064764435302077	0.020989505247376312	-1.1424287856071964	-0.07346326836581708	
1.737580166880517E12	0.3069572560816207	9.072289156626507	-1.7800629575596656	0.2903755829268924	9.07738452309538	-2.0187791463446216	4.797919643991065	19.314228921649825	11.785370976084911	0.020989505247376312	-1.1424287856071964	-0.07346326836581708	
1.7375801668855134E12	0.282622340175621	9.048192771084338	-1.756209921176557	0.29892978383730573	9.026994601079783	-1.9845954274311062	6.611851471909492	19.94368063607752	11.096629225589808	0.010494752623688156	-1.128935532233883	-0.06146926536731634	
1.73758016689051E12	0.23407297824434423	9.060240963855422	-1.7205508364826168	0.29892978383730573	9.026994601079783	-1.9845954274311062	7.313099571568038	20.192148418088454	9.884529826350873	0.010494752623688156	-1.128935532233883	-0.06146926536731634	
1.7375801668955066E12	0.23407297824434423	9.084337349397591	-1.7205508364826168	0.19811933541612187	9.031793641271745	-1.9094309740393498	8.042513369251896	19.115454696041077	7.387254192727779	0.005997001499250375	-1.1304347826086956	-0.06446776611694152	
1.737580166900503E12	0.11348262764085038	9.10843373493976	-1.7097085472175673	0.19811933541612187	9.031793641271745	-1.9094309740393498	7.823577829983754	17.12771243995362	6.309904597336786	0.005997001499250375	-1.1304347826086956	-0.06446776611694152	
1.7375801669054995E12	0.08890677197340507	9.0	-1.6617615346899044	0.10054954789128284	8.99100179964007	-1.88082612435629	7.565013006644023	17.475567334768925	6.132696272810685	0.0029985007496251873	-1.1319340329835081	-0.06296851574212893	
1.7375801669104958E12	0.04071881968429664	8.927710843373495	-1.6622434142127955	0.10054954789128284	8.99100179964007	-1.88082612435629	7.682705862085118	16.133841311909887	5.0831657057301145	0.0029985007496251873	-1.1319340329835081	-0.06296851574212893	
1.7375801669154924E12	0.12480679642879086	8.831325301204819	-1.637306148903182	0.10505796978789883	8.847030593881223	-1.8753003369699988	8.392843799915601	16.24979294351499	4.513476057444578	0.013493253373313342	-1.1349325337331333	-0.06896551724137931	
1.737580166920489E12	0.17275380895645376	8.843373493975903	-1.6127302932357366	0.10505796978789883	8.847030593881223	-1.8753003369699988	9.171718977430404	15.570647672685107	4.7270302814619445	0.013493253373313342	-1.1349325337331333	-0.06896551724137931	
1.7375801669254854E12	0.2804538823226111	8.74698795180723	-1.539364135875569	0.2559537568412273	8.729454109178164	-1.7988425764724476	10.55550118046085	16.465131687924465	2.642837543501479	0.01649175412293853	-1.1304347826086956	-0.05847076461769115	
1.737580166930482E12	0.09986953111917724	8.903614457831326	-1.5532181721586877	0.2559537568412273	8.729454109178164	-1.7988425764724476	10.533847546538908	14.67616365744575	6.33959450384281	0.01649175412293853	-1.1304347826086956	-0.05847076461769115	
1.7375801669354785E12	0.08842489245051399	9.036144578313253	-1.613573582400796	0.1330757717186257	8.926214757048589	-1.7750356990952578	10.958156712102372	14.758986251449395	6.787697855612764	0.0074962518740629685	-1.1199400299850075	-0.06896551724137931	
1.7375801669404749E12	0.015058735090346389	9.060240963855422	-1.5058735090346387	0.1330757717186257	8.926214757048589	-1.7750356990952578	10.896821255526023	11.727679310916017	5.264275672512499	0.0074962518740629685	-1.1199400299850075	-0.06896551724137931	
1.7375801669454714E12	0.1233611578601176	9.132530120481928	-1.4927422920358566	0.11369851642267687	9.070185962807438	-1.7299604631661767	10.859406626237526	11.363259897299983	4.411557896921182	0.014992503748125937	-1.1319340329835081	-0.06596701649175413	
1.7375801669504678E12	0.19564308629378027	9.10843373493976	-1.49201947275152	0.11369851642267687	9.070185962807438	-1.7299604631661767	11.400010784287197	10.485340400861354	5.4813105452465	0.014992503748125937	-1.1319340329835081	-0.06596701649175413	
1.7375801669554644E12	0.24371056870216593	9.144578313253012	-1.479490605156352	0.2766583149131833	9.125374925014997	-1.6793360689848014	11.126566669043982	9.441775716415437	5.260637842921807	0.004497751124437781	-1.1274362818590704	-0.06596701649175413	
1.737580166960461E12	0.2676840749659974	9.180722891566266	-1.4672026773226292	0.2766583149131833	9.125374925014997	-1.6793360689848014	9.816922589322436	9.160178896803048	2.9938053862861445	0.004497751124437781	-1.1274362818590704	-0.06596701649175413	
1.7375801669654573E12	0.2923804005141655	9.228915662650603	-1.5271966779225692	0.3052879770687531	9.130173965206957	-1.7251378834607496	9.2750839148269	8.348517475567334	5.1102915188413	0.019490254872563718	-1.1454272863568216	-0.07196401799100449	
1.7375801669704539E12	0.2313021709877205	9.168674698795181	-1.4434701108202432	0.3052879770687531	9.130173965206957	-1.7251378834607496	8.628950855648327	6.940533377505383	5.405067574524117	0.019490254872563718	-1.1454272863568216	-0.07196401799100449	
1.7375801669754504E12	0.2676840749659974	9.168674698795181	-1.4672026773226292	0.3177087273771003	9.146970605878824	-1.6533347522268413	7.255646751168136	6.99022693390757	4.910056889311978	0.0074962518740629685	-1.1244377811094453	-0.06446776611694152	
1.7375801669804468E12	0.2551552073708292	9.144578313253012	-1.4191351949142434	0.3177087273771003	9.146970605878824	-1.6533347522268413	6.073826219481484	6.576113963889348	5.174805310657161	0.0074962518740629685	-1.1244377811094453	-0.06446776611694152	
1.7375801669854434E12	0.21913471303472062	9.132530120481928	-1.431543592628689	0.29601952090944317	9.0749850029994	-1.6081353988208886	5.510176866108318	5.830710617856551	4.8781786265342255	0.005997001499250375	-1.128935532233883	-0.05997001499250375	
