"sep=	"
Shimmer_952D_TimestampSync_Unix_CAL	Shimmer_952D_Accel_LN_X_CAL	Shimmer_952D_Accel_LN_Y_CAL	Shimmer_952D_Accel_LN_Z_CAL	Shimmer_952D_Accel_WR_X_CAL	Shimmer_952D_Accel_WR_Y_CAL	Shimmer_952D_Accel_WR_Z_CAL	Shimmer_952D_Gyro_X_CAL	Shimmer_952D_Gyro_Y_CAL	Shimmer_952D_Gyro_Z_CAL	Shimmer_952D_Mag_X_CAL	Shimmer_952D_Mag_Y_CAL	Shimmer_952D_Mag_Z_CAL	
ms	m/(s^2)	m/(s^2)	m/(s^2)	m/(s^2)	m/(s^2)	m/(s^2)	deg/s	deg/s	deg/s	local_flux	local_flux	local_flux	
1.7375793624004744E12	-0.6822209345330527	9.710843373493976	0.7522139352329827	-0.7028312402811818	9.655668866226755	0.5283980417727199	-2.8139512408897573	3.6276296173596156	1.150101118072197	0.014992503748125937	-1.1604197901049476	-0.01649175412293853	
1.7375793624054587E12	-0.669451127176439	9.710843373493976	0.6800524766800429	-0.6887071542126424	9.689262147570485	0.5150343849970156	-2.5096381215388988	3.6607586549610733	1.346660545926643	0.014992503748125937	-1.1604197901049476	-0.01649175412293853	
1.7375793624104429E12	-0.6690897175342707	9.686746987951807	0.6439115124632115	-0.6887071542126424	9.689262147570485	0.5150343849970156	-2.342072729679815	3.4288553917508695	1.4354506096354525	0.017991004497751123	-1.1559220389805096	-0.010494752623688156	
1.7375793624154272E12	-0.6457185606740531	9.72289156626506	0.7164343806583197	-0.6835365772737336	9.694061187762447	0.4874524202686703	-2.52421120189258	3.594500579758158	1.2725750131477656	0.017991004497751123	-1.1559220389805096	-0.010494752623688156	
1.7375793624204116E12	-0.6822209345330527	9.698795180722891	0.7522139352329827	-0.6835365772737336	9.694061187762447	0.4874524202686703	-2.6461165672516715	3.6276296173596156	1.2119630038807785	0.029985007496251874	-1.1424287856071964	-0.020989505247376312	
1.737579362425396E12	-0.6701739464607755	9.698795180722891	0.7523344051137055	-0.651074017586857	9.70365926814637	0.48095261144446483	-3.288452022589432	3.7270167301639883	1.1269786754822921	0.029985007496251874	-1.1424287856071964	-0.020989505247376312	
1.7375793624303804E12	-0.657886018627053	9.698795180722891	0.728360898849874	-0.651074017586857	9.70365926814637	0.48095261144446483	-3.3039025053476703	3.6607586549610733	1.1406333831590532	0.019490254872563718	-1.1469265367316341	-0.022488755622188904	
1.7375793624353647E12	-0.6460799703162213	9.710843373493976	0.752575344875151	-0.6396188371949838	9.691661667666466	0.48556079739352687	-2.826626594941545	3.594500579758158	0.8862429551039576	0.019490254872563718	-1.1469265367316341	-0.022488755622188904	
1.737579362440349E12	-0.5377775475464501	9.530120481927712	0.765706561873933	-0.6396188371949838	9.691661667666466	0.48556079739352687	-2.460902218260992	3.4122908729501407	1.067250922576948	0.026986506746626684	-1.158920539730135	-0.01649175412293853	
1.7375793624453335E12	-0.6458390305547759	9.686746987951807	0.7284813687305968	-0.6420191383518836	9.686862627474504	0.49010241412998057	-2.076668043250845	3.4122908729501407	0.9286726252376013	0.026986506746626684	-1.158920539730135	-0.01649175412293853	
1.7375793624503179E12	-0.6337920424824988	9.686746987951807	0.7286018386113196	-0.6420191383518836	9.686862627474504	0.49010241412998057	-2.015703767726708	3.27977472254431	0.9578193454119357	0.01649175412293853	-1.1679160419790104	-0.014992503748125937	
1.737579362455302E12	-0.6698125368186073	9.674698795180724	0.7161934408968742	-0.6394300114179686	9.670065986802639	0.4761195085427741	-2.1371671196422084	3.27977472254431	0.8530059917859409	0.01649175412293853	-1.1679160419790104	-0.014992503748125937	
1.7375793624602864E12	-0.658367898149944	9.614457831325302	0.7765488511389824	-0.6394300114179686	9.670065986802639	0.4761195085427741	-2.1679516615963985	3.4454199105515984	0.868673050910885	0.020989505247376312	-1.1619190404797601	-0.014992503748125937	
1.7375793624652708E12	-0.6824618742944982	9.710843373493976	0.776307911377537	-0.671943975869603	9.686862627474504	0.48518955560486104	-2.2475736253048777	3.4122908729501407	1.1739015810237547	0.020989505247376312	-1.1619190404797601	-0.014992503748125937	
1.7375793624702551E12	-0.6458390305547759	9.734939759036145	0.7284813687305968	-0.671943975869603	9.686862627474504	0.48518955560486104	-2.093186877405442	3.7932748053669036	1.0491624725503166	0.020989505247376312	-1.158920539730135	-0.017991004497751123	
1.7375793624752395E12	-0.6464413799583897	9.650602409638555	0.7887163090919823	-0.6982641511963484	9.679664067186561	0.5309904697481375	-2.1280494027076684	3.7932748053669036	1.4726278664789656	0.020989505247376312	-1.158920539730135	-0.017991004497751123	
1.7375793624802239E12	-0.6822209345330527	9.710843373493976	0.7522139352329827	-0.6982641511963484	9.679664067186561	0.5309904697481375	-1.7462129316659636	4.373032963392413	1.5738199659837844	0.019490254872563718	-1.1484257871064467	-0.013493253373313342	
1.7375793624852083E12	-0.7180004891077157	9.698795180722891	0.7157115613739831	-0.6703691604023627	9.667666466706658	0.5219222233513936	-1.898587185821876	4.3399039257909555	1.497309700104877	0.019490254872563718	-1.1484257871064467	-0.013493253373313342	
1.7375793624901926E12	-0.6695715970571617	9.698795180722891	0.69209946475232	-0.6703691604023627	9.667666466706658	0.5219222233513936	-1.9433814027619032	4.654629783004803	1.3825506896665751	0.013493253373313342	-1.1664167916041979	-0.010494752623688156	
1.7375793624951768E12	-0.6217450544102217	9.614457831325302	0.7287223084920423	-0.6629832696191085	9.679664067186561	0.4990480075143136	-1.4683006544878248	4.604936226602617	1.3476764748161703	0.013493253373313342	-1.1664167916041979	-0.010494752623688156	
1.7375793625001611E12	-0.6465618498391125	9.74698795180723	0.8007632971642594	-0.6629832696191085	9.679664067186561	0.4990480075143136	-1.8050118552298606	4.787145933410634	1.3281380497854547	0.017991004497751123	-1.1529235382308844	-0.008995502248875561	
1.7375793625051455E12	-0.7065558504390524	9.734939759036145	0.7760669716160914	-0.6424333206208863	9.682063587282542	0.5108115275801115	-1.6517519180661122	4.737452377008448	1.3160800148807528	0.017991004497751123	-1.1529235382308844	-0.008995502248875561	
1.73757936251013E12	-0.634153452124667	9.698795180722891	0.7647428028281509	-0.6424333206208863	9.682063587282542	0.5108115275801115	-1.6971845609198706	4.124565181381481	1.2651635958155432	0.022488755622188904	-1.158920539730135	-0.010494752623688156	
1.7375793625151143E12	-0.6462004401969441	9.66265060240964	0.7646223329474281	-0.6611384102079292	9.694061187762447	0.5222784780638958	-1.589569745170211	4.124565181381481	1.2234369978786714	0.022488755622188904	-1.158920539730135	-0.010494752623688156	
1.7375793625200986E12	-0.609457126576499	9.759036144578314	0.7047488022282109	-0.6611384102079292	9.694061187762447	0.5222784780638958	-1.8479601807246984	4.190823256584396	1.0287898948281964	0.026986506746626684	-1.1649175412293853	-0.020989505247376312	
1.737579362525083E12	-0.5971691987427763	9.72289156626506	0.6807752959643795	-0.6168535743524158	9.70125974805039	0.50203206635059	-1.493907395405155	4.174258737783667	0.8455634302551657	0.026986506746626684	-1.1649175412293853	-0.020989505247376312	
1.7375793625300674E12	-0.5860859697162814	9.674698795180724	0.7772716704233191	-0.6168535743524158	9.70125974805039	0.50203206635059	-1.5253684540481622	3.7932748053669036	0.9288821582618676	0.020989505247376312	-1.1454272863568216	-0.008995502248875561	
1.7375793625350515E12	-0.5616305839295589	9.710843373493976	0.7413716459679334	-0.6010999093954755	9.67246550689862	0.5226629062633821	-1.0507081896491468	3.5613715421567003	0.9360563309177459	0.020989505247376312	-1.1454272863568216	-0.008995502248875561	
1.737579362540036E12	-0.5618715236910043	9.63855421686747	0.7654656221124876	-0.6010999093954755	9.67246550689862	0.5226629062633821	-0.6375888551073599	3.379161835348683	0.9717492167084114	0.01649175412293853	-1.1679160419790104	-0.017991004497751123	
1.7375793625450203E12	-0.6459595004354987	9.674698795180724	0.7405283568028739	-0.5920440705443871	9.650869826034793	0.5317647281431394	-0.5922560746093278	3.5282425045552426	1.0326518713462574	0.01649175412293853	-1.1679160419790104	-0.017991004497751123	
1.7375793625500046E12	-0.6217450544102217	9.795180722891567	0.7287223084920423	-0.5920440705443871	9.650869826034793	0.5317647281431394	-0.2542618926735762	3.677323173761802	0.9238921770053984	0.019490254872563718	-1.158920539730135	-0.010494752623688156	
1.737579362554989E12	-0.5982534276692812	9.72289156626506	0.7891981886148735	-0.5939374558719784	9.648470305938812	0.5109605534141632	0.09732148037295028	3.495113466953785	0.9876069397340685	0.019490254872563718	-1.158920539730135	-0.010494752623688156	
1.7375793625599734E12	-0.6093366566957762	9.927710843373495	0.6927018141559338	-0.5939374558719784	9.648470305938812	0.5109605534141632	0.18554412702649223	3.362597316547954	1.353703683261955	0.013493253373313342	-1.1559220389805096	-0.01199400299850075	
1.7375793625649578E12	-0.5972896686234991	9.734939759036145	0.6928222840366566	-0.5914035721672817	9.677264547090582	0.4997398092878721	0.3268416614817012	3.461984429352327	1.006492351064184	0.013493253373313342	-1.1559220389805096	-0.01199400299850075	
1.7375793625699421E12	-0.6693306572957162	9.759036144578314	0.6680054886077658	-0.5914035721672817	9.677264547090582	0.4997398092878721	0.2640127820687892	3.2300811661421234	1.1638060197673283	0.019490254872563718	-1.1619190404797601	-0.020989505247376312	
1.7375793625749265E12	-0.7176390794655474	9.783132530120483	0.6795705971571517	-0.6146358614677824	9.696460707858428	0.506619863227459	0.4503539417951565	3.4454199105515984	0.9064128648947611	0.019490254872563718	-1.1619190404797601	-0.020989505247376312	
1.7375793625799106E12	-0.622588343575281	9.771084337349398	0.8130512249979821	-0.6146358614677824	9.696460707858428	0.506619863227459	0.6017161526570113	3.362597316547954	1.084127460179421	0.017991004497751123	-1.158920539730135	-0.008995502248875561	
1.737579362584895E12	-0.6230702230981721	9.771084337349398	0.8612391772870905	-0.6537539588488477	9.713257348530293	0.49947623343545355	0.5101698770150791	3.0975650157362926	1.050393615490556	0.019490254872563718	-1.1559220389805096	-0.013493253373313342	
1.7375793625898794E12	-0.6465618498391125	9.771084337349398	0.8007632971642594	-0.6537539588488477	9.713257348530293	0.49947623343545355	0.8013606605085918	3.180387609739937	1.027793060932553	0.019490254872563718	-1.1559220389805096	-0.013493253373313342	
1.7375793625948638E12	-0.6223474038138355	9.74698795180723	0.7889572488534279	-0.6499172228530801	9.698860227954409	0.5385863158641622	0.6196857313079444	3.0975650157362926	0.8185631632331342	0.017991004497751123	-1.1529235382308844	-0.017991004497751123	
1.7375793625998481E12	-0.6221064640523899	9.734939759036145	0.7648632727088737	-0.6499172228530801	9.698860227954409	0.5385863158641622	0.7720566732225448	3.163823090939208	0.89540465324323	0.017991004497751123	-1.1529235382308844	-0.017991004497751123	
1.7375793626048325E12	-0.6222269339331127	9.771084337349398	0.7769102607811508	-0.6641859270547408	9.696460707858428	0.5591808792959262	0.6956766934739446	2.8822262713268176	0.8764347873681791	0.0239880059970015	-1.1484257871064467	-0.026986506746626684	
1.737579362609817E12	-0.6459595004354987	9.819277108433736	0.7405283568028739	-0.6641859270547408	9.696460707858428	0.5591808792959262	0.7833943940989706	3.4122908729501407	1.2930261337476516	0.0239880059970015	-1.1484257871064467	-0.026986506746626684	
1.7375793626148013E12	-0.5980124879078357	9.74698795180723	0.7651042124703192	-0.6573944077724676	9.682063587282542	0.5660252385079036	0.7857473828097018	3.27977472254431	1.0577272626745287	0.019490254872563718	-1.1574212893553224	-0.01199400299850075	
1.7375793626197854E12	-0.5619919935717271	9.734939759036145	0.7775126101847647	-0.6573944077724676	9.682063587282542	0.5660252385079036	0.6024705070166582	3.1306940533377503	1.0086920242147375	0.019490254872563718	-1.1574212893553224	-0.01199400299850075	
1.7375793626247698E12	-0.5980124879078357	9.819277108433736	0.7651042124703192	-0.6337517746674248	9.686862627474504	0.5386279943412197	0.41667784757223103	3.27977472254431	1.2112351508932837	0.022488755622188904	-1.158920539730135	-0.004497751124437781	
1.7375793626297542E12	-0.5975306083849447	9.734939759036145	0.7169162601812108	-0.6337517746674248	9.686862627474504	0.5386279943412197	0.20246522772893702	3.3460327977472253	1.1929871811644919	0.022488755622188904	-1.158920539730135	-0.004497751124437781	
1.7375793626347385E12	-0.5865678492391725	9.771084337349398	0.8254596227124276	-0.612880376960506	9.696460707858428	0.5343190789721857	0.43300076437305735	3.395726354149412	1.1103370389576666	0.01199400299850075	-1.1514242878560719	-0.014992503748125937	
1.737579362639723E12	-0.5138040412826187	9.698795180722891	0.7779944897076557	-0.612880376960506	9.696460707858428	0.5343190789721857	0.02165113972628651	3.4288553917508695	0.8976731636653765	0.01199400299850075	-1.1514242878560719	-0.014992503748125937	
1.7375793626447073E12	-0.611023235025895	9.783132530120483	0.8613596471678133	-0.6127862039760272	9.686862627474504	0.5296104297482489	-0.03987819728635032	3.362597316547954	0.9250325923410044	0.019490254872563718	-1.158920539730135	-0.017991004497751123	
1.7375793626496917E12	-0.6087343072921624	9.710843373493976	0.6324668737945482	-0.6127862039760272	9.686862627474504	0.5296104297482489	0.1590401102567343	3.1306940533377503	0.941318223943719	0.019490254872563718	-1.158920539730135	-0.017991004497751123	
1.737579362654676E12	-0.609457126576499	9.734939759036145	0.7047488022282109	-0.5899743344492778	9.694061187762447	0.5437513644962229	0.02010053287422443	2.84909723372536	1.0527338488715845	0.025487256371814093	-1.1574212893553224	-0.010494752623688156	
1.7375793626596604E12	-0.5737980418825587	9.72289156626506	0.7532981641594877	-0.5899743344492778	9.694061187762447	0.5437513644962229	0.21812322068553733	2.7994036773231734	1.1585814536514736	0.025487256371814093	-1.1574212893553224	-0.010494752623688156	
1.7375793626646445E12	-0.5735571021211132	9.698795180722891	0.7292041880149335	-0.5938514396244786	9.679664067186561	0.5066597410391733	0.46588226222422346	2.733145602120258	0.8849743901350742	0.02848575712143928	-1.1619190404797601	-0.01649175412293853	
1.737579362669629E12	-0.5492221862151134	9.72289156626506	0.7053511516318247	-0.5938514396244786	9.679664067186561	0.5066597410391733	0.46384327055020497	2.6503230081166143	1.0888735575369266	0.02848575712143928	-1.1619190404797601	-0.01649175412293853	
1.7375793626746133E12	-0.5617510538102816	9.734939759036145	0.7534186340402105	-0.5842502349968788	9.698860227954409	0.4884932740933585	0.5576327358232064	2.4184197449064104	0.8982884391188702	0.026986506746626684	-1.1649175412293853	-0.01649175412293853	
1.7375793626795977E12	-0.5371751981428363	9.674698795180724	0.7054716215125475	-0.5842502349968788	9.698860227954409	0.4884932740933585	0.4969923940597176	2.236210038098393	0.8367483428797005	0.026986506746626684	-1.1649175412293853	-0.01649175412293853	
1.737579362684582E12	-0.5487403066922223	9.759036144578314	0.6571631993427163	-0.5716875297699672	9.684463107378523	0.43772521829050315	0.6651360963725481	2.0705648500911047	0.8677073612137941	0.026986506746626684	-1.1484257871064467	-0.017991004497751123	
1.7375793626895664E12	-0.5611487044066678	9.759036144578314	0.6931836936788249	-0.5716875297699672	9.684463107378523	0.43772521829050315	0.6642553817266799	2.1036938876925624	0.955778825800621	0.026986506746626684	-1.1484257871064467	-0.017991004497751123	
1.7375793626945508E12	-0.561028234525945	9.710843373493976	0.6811367056065478	-0.5716385240454974	9.670065986802639	0.43527493206701784	0.7845588004933748	2.0043067748881893	1.1765854943072356	0.019490254872563718	-1.1604197901049476	-0.014992503748125937	
1.7375793626995352E12	-0.5246463305476681	9.759036144578314	0.6574041391041618	-0.5716385240454974	9.670065986802639	0.43527493206701784	1.1075908844928453	1.5901938048699684	1.032642025447493	0.019490254872563718	-1.1604197901049476	-0.014992503748125937	
1.7375793627045193E12	-0.5488607765729451	9.686746987951807	0.6692101874149934	-0.5666510151869127	9.667666466706658	0.41684637135487457	1.414971600018339	1.6564518800728838	0.9224418358383927	0.01199400299850075	-1.1529235382308844	-0.01199400299850075	
1.7375793627095037E12	-0.5609077646452222	9.674698795180724	0.6690897175342707	-0.5666510151869127	9.667666466706658	0.41684637135487457	1.3397581779011687	1.4079840980619511	0.7868162068203454	0.01199400299850075	-1.1529235382308844	-0.01199400299850075	
1.737579362714488E12	-0.5848812709090536	9.686746987951807	0.656801789700548	-0.5850745454366346	9.655668866226755	0.4142353549726071	1.460503610111454	1.2754679476561206	0.9634215309679521	0.014992503748125937	-1.1574212893553224	-0.013493253373313342	
1.7375793627194724E12	-0.5606668248837767	9.686746987951807	0.6449957413897165	-0.5850745454366346	9.655668866226755	0.4142353549726071	1.6476040925594355	1.2092098724532052	0.6300961039339187	0.014992503748125937	-1.1574212893553224	-0.013493253373313342	
1.7375793627244568E12	-0.5730752225982221	9.686746987951807	0.681016235725825	-0.5805483053392919	9.653269346130774	0.41887023232256304	1.8139714604946264	1.2589034288553917	0.8386885600320136	0.014992503748125937	-1.154422788605697	-0.004497751124437781	
1.7375793627294412E12	-0.5729547527174993	9.686746987951807	0.6689692476535479	-0.5805483053392919	9.653269346130774	0.41887023232256304	1.877115993064907	1.2589034288553917	0.6498095755920049	0.014992503748125937	-1.154422788605697	-0.004497751124437781	
1.7375793627344255E12	-0.5730752225982221	9.686746987951807	0.681016235725825	-0.5692367834644247	9.667666466706658	0.4306613441219264	2.138135323591752	1.225774391253934	0.5815671814067526	0.022488755622188904	-1.158920539730135	-0.01199400299850075	
1.73757936273941E12	-0.5730752225982221	9.674698795180724	0.681016235725825	-0.5692367834644247	9.667666466706658	0.4306613441219264	2.0470095318248824	1.1429517972502898	0.505784949211604	0.022488755622188904	-1.158920539730135	-0.01199400299850075	
1.737579362744394E12	-0.5850017407897764	9.698795180722891	0.6688487777728251	-0.6015153154548621	9.660467906418715	0.42795976812417147	1.9220166968432846	1.3417260228590357	0.7539199021952936	0.01649175412293853	-1.1559220389805096	-0.01199400299850075	
1.7375793627493784E12	-0.5854836203126675	9.650602409638555	0.7170367300619336	-0.6015153154548621	9.660467906418715	0.42795976812417147	2.0314277204184554	0.9276130528408149	0.5325725217072906	0.01649175412293853	-1.1559220389805096	-0.01199400299850075	
1.7375793627543628E12	-0.5972896686234991	9.674698795180724	0.6928222840366566	-0.608767143882262	9.670065986802639	0.4441308661685348	2.0009389581737635	1.0601292032466456	0.5186616098825001	0.020989505247376312	-1.154422788605697	-0.008995502248875561	
1.7375793627593472E12	-0.609457126576499	9.66265060240964	0.7047488022282109	-0.6089055245106346	9.670065986802639	0.4510498975871646	1.9560382543953856	0.9773066092430014	0.4145512832792115	0.020989505247376312	-1.154422788605697	-0.008995502248875561	
1.7375793627643315E12	-0.6090957169343306	9.710843373493976	0.6686078380113796	-0.608907443742865	9.679664067186561	0.45114585919868155	1.770838810490609	1.0435646844459168	0.5577728559926945	0.020989505247376312	-1.1424287856071964	-0.010494752623688156	
1.737579362769316E12	-0.5850017407897764	9.674698795180724	0.6688487777728251	-0.6061818554128078	9.67246550689862	0.43033988380436217	2.429641760242633	1.0766937220473745	0.5274013111118848	0.020989505247376312	-1.1424287856071964	-0.010494752623688156	
1.7375793627743003E12	-0.584760801028331	9.63855421686747	0.6447548016282709	-0.6061818554128078	9.67246550689862	0.43033988380436217	2.0638142089650415	0.8282259400364419	0.3567108033427192	0.03298350824587706	-1.1649175412293853	-0.013493253373313342	
1.7375793627792847E12	-0.5851222106704992	9.63855421686747	0.6808957658451023	-0.6031799856340629	9.667666466706658	0.3957198359756625	1.4840516002264377	0.7950969024349842	0.14001608761656326	0.03298350824587706	-1.1649175412293853	-0.013493253373313342	
1.737579362784269E12	-0.6088547771728852	9.63855421686747	0.6445138618668254	-0.6031799856340629	9.667666466706658	0.3957198359756625	1.7449396021050934	0.612887195626967	0.0849065582502364	0.01199400299850075	-1.1514242878560719	-0.019490254872563718	
1.7375793627892532E12	-0.5965668493391625	9.759036144578314	0.6205403556029939	-0.6078398082792023	9.64607078584283	0.397764086015544	1.5626896746920107	0.4306774888189498	-0.06682351820565494	0.01199400299850075	-1.1514242878560719	-0.019490254872563718	
1.7375793627942375E12	-0.6448752715089937	9.783132530120483	0.6321054641523799	-0.6078398082792023	9.64607078584283	0.397764086015544	1.7147996154308884	0.1822097068080172	0.03611808937669795	0.029985007496251874	-1.1469265367316341	-0.008995502248875561	
1.737579362799222E12	-0.6319849942716571	9.698795180722891	0.5478970175271629	-0.6074683942299208	9.634073185362926	0.3791933835514685	1.2411828606183932	0.2153387444094749	-0.07540704193122202	0.029985007496251874	-1.1469265367316341	-0.008995502248875561	
1.7375793628042063E12	-0.6451162112704392	9.614457831325302	0.6561994402969341	-0.6074683942299208	9.634073185362926	0.3791933835514685	1.0576052367538844	0.14908066920655955	-0.0943674732444963	0.01199400299850075	-1.1484257871064467	-0.01199400299850075	
1.7375793628091907E12	-0.6447548016282709	9.590361445783133	0.6200584760801028	-0.6104712236247809	9.64367126574685	0.41386141218592665	0.889236967919762	-0.3644194136160344	-0.1028698394494047	0.01199400299850075	-1.1484257871064467	-0.01199400299850075	
1.737579362814175E12	-0.7042669227053198	9.698795180722891	0.5471741982428263	-0.6104712236247809	9.64367126574685	0.41386141218592665	1.1494070500932014	-0.6791452708298823	-0.08618739829411944	0.017991004497751123	-1.1514242878560719	-0.01199400299850075	
1.7375793628191594E12	-0.6328282834367166	9.66265060240964	0.6322259340331027	-0.6103357218447538	9.658068386322734	0.4070863231845723	1.0406670797285105	-1.126387278449561	0.0680546611458944	0.017991004497751123	-1.1514242878560719	-0.01199400299850075	
1.7375793628241438E12	-0.6690897175342707	9.710843373493976	0.6439115124632115	-0.6103357218447538	9.658068386322734	0.4070863231845723	0.7674028157488763	-1.0435646844459168	-0.17060316753694102	0.020989505247376312	-1.154422788605697	-0.013493253373313342	
1.737579362829128E12	-0.6213836447680533	9.759036144578314	0.692581344275211	-0.6037301494911501	9.650869826034793	0.423228028830027	0.5216877342461764	-0.9441775716415437	-0.10139210761917655	0.020989505247376312	-1.154422788605697	-0.013493253373313342	
1.7375793628341123E12	-0.5606668248837767	9.74698795180723	0.6449957413897165	-0.6037301494911501	9.650869826034793	0.423228028830027	0.5192067291285679	-0.9938711280437302	0.14670840414168354	0.01649175412293853	-1.158920539730135	-0.013493253373313342	
1.7375793628390967E12	-0.645236681151162	9.686746987951807	0.6682464283692112	-0.5833661474215976	9.660467906418715	0.4442888953293022	0.07273192188319176	-1.2589034288553917	0.3837756524158935	0.01649175412293853	-1.158920539730135	-0.013493253373313342	
1.737579362844081E12	-0.5130812219982821	9.710843373493976	0.7057125612739931	-0.5833661474215976	9.660467906418715	0.4442888953293022	0.1208514239322653	-1.1926453536524764	0.16600615194957993	0.014992503748125937	-1.1574212893553224	-0.008995502248875561	
1.7375793628490654E12	-0.5004318845223912	9.759036144578314	0.6455980907933303	-0.5670147523072729	9.641271745650869	0.43503322737288236	-0.12557660891368283	-1.2754679476561206	0.30651234619217405	0.014992503748125937	-1.1574212893553224	-0.008995502248875561	
1.7375793628540498E12	-0.5246463305476681	9.771084337349398	0.6574041391041618	-0.5670147523072729	9.641271745650869	0.43503322737288236	-0.10853246016632853	-1.0601292032466456	0.13349103960375647	0.0239880059970015	-1.158920539730135	-0.013493253373313342	
1.7375793628590342E12	-0.4762174384971141	9.650602409638555	0.6337920424824988	-0.534414291800081	9.653269346130774	0.4216383775329263	-0.5376209675764867	-1.6067583236706973	0.16332187250317765	0.0239880059970015	-1.158920539730135	-0.013493253373313342	
1.7375793628640186E12	-0.4644113901862826	9.734939759036145	0.6580064885077758	-0.534414291800081	9.653269346130774	0.4216383775329263	-0.9622424740560077	-1.4908066920655954	-0.25354738766110035	0.020989505247376312	-1.1454272863568216	-0.017991004497751123	
1.737579362869003E12	-0.5246463305476681	9.759036144578314	0.6574041391041618	-0.5237408692620314	9.629274145170966	0.46533445617316094	-1.3455810293343828	-1.6730163988736126	-0.20453106349892825	0.020989505247376312	-1.1454272863568216	-0.017991004497751123	
1.737579362873987E12	-0.5266943185199552	9.710843373493976	0.8622029363328727	-0.5237408692620314	9.629274145170966	0.46533445617316094	-1.1911098192814942	-2.13682292529402	-0.33771638731766906	0.025487256371814093	-1.1559220389805096	-0.010494752623688156	
1.7375793628789714E12	-0.46537514923206474	9.66265060240964	0.7543823930859926	-0.5333036239424285	9.648470305938812	0.48157842575883353	-1.2202841340400077	-1.9877422560874605	-0.48307204776032325	0.025487256371814093	-1.1559220389805096	-0.010494752623688156	
1.7375793628839558E12	-0.536813788500668	9.66265060240964	0.6693306572957162	-0.5333036239424285	9.648470305938812	0.48157842575883353	-0.9898898627680124	-1.9877422560874605	-0.551595652754658	0.014992503748125937	-1.158920539730135	-0.0074962518740629685	
1.7375793628889402E12	-0.5478970175271629	9.674698795180724	0.5728342828367765	-0.5602779964461604	9.670065986802639	0.44461575764289585	-1.2810972074680842	-1.9049196620838162	-0.5273389775407132	0.014992503748125937	-1.158920539730135	-0.0074962518740629685	
1.7375793628939246E12	-0.561028234525945	9.674698795180724	0.6811367056065478	-0.5602779964461604	9.670065986802639	0.44461575764289585	-1.5259216376009803	-1.938048699685274	-0.5471930546033406	0.010494752623688156	-1.1574212893553224	-0.010494752623688156	
1.737579362898909E12	-0.5731956924789449	9.698795180722891	0.6930632237981021	-0.572100272614797	9.67246550689862	0.4583623605319963	-1.480148499780014	-1.8055325492794434	-0.5303261322589081	0.010494752623688156	-1.1574212893553224	-0.010494752623688156	
1.7375793629038933E12	-0.692581344275211	9.759036144578314	0.5834356323403804	-0.572100272614797	9.67246550689862	0.4583623605319963	-1.4958798571618457	-1.9877422560874605	-0.48858396222276	0.022488755622188904	-1.158920539730135	-0.01649175412293853	
1.7375793629088777E12	-0.5969282589813307	9.710843373493976	0.6566813198198252	-0.5850807829413832	9.686862627474504	0.41454723021003714	-1.5107437488630568	-2.0705648500911047	-0.5335883602486855	0.022488755622188904	-1.158920539730135	-0.01649175412293853	
1.7375793629138618E12	-0.5970487288620535	9.698795180722891	0.6687283078921024	-0.5850807829413832	9.686862627474504	0.41454723021003714	-1.4808597950026063	-2.0043067748881893	-0.4591966099996726	0.019490254872563718	-1.158920539730135	-0.01649175412293853	
1.7375793629188462E12	-0.596807789100608	9.686746987951807	0.6446343317475481	-0.6032741586185415	9.677264547090582	0.4004284851995994	-1.3698584176796311	-2.236210038098393	-0.8395793652681438	0.019490254872563718	-1.158920539730135	-0.01649175412293853	
1.7375793629238306E12	-0.6328282834367166	9.686746987951807	0.6322259340331027	-0.6032741586185415	9.677264547090582	0.4004284851995994	-1.708761468312402	-2.0705648500911047	-0.639932801225357	0.01649175412293853	-1.1574212893553224	-0.020989505247376312	
1.737579362928815E12	-0.6090957169343306	9.710843373493976	0.6686078380113796	-0.6310677793071848	9.64367126574685	0.40442822632921793	-1.67637332364516	-2.1865164816962066	-0.8159601316555227	0.01649175412293853	-1.1574212893553224	-0.020989505247376312	
1.7375793629337993E12	-0.645236681151162	9.686746987951807	0.6682464283692112	-0.6310677793071848	9.64367126574685	0.40442822632921793	-1.3824289410137245	-1.8552261056816297	-1.1139206000058022	0.01649175412293853	-1.1604197901049476	-0.0074962518740629685	
1.7375793629387837E12	-0.6572836692234391	9.66265060240964	0.6681259584884884	-0.6586860088444253	9.655668866226755	0.39965840988870227	-1.1418519136521414	-1.7558389928772569	-0.6693262458118783	0.01649175412293853	-1.1604197901049476	-0.0074962518740629685	
1.737579362943768E12	-0.6566813198198252	9.710843373493976	0.6078910181271029	-0.6586860088444253	9.655668866226755	0.39965840988870227	-0.7132787841108048	-1.9049196620838162	-0.6476192918291621	0.022488755622188904	-1.1559220389805096	-0.017991004497751123	
1.7375793629487524E12	-0.6458390305547759	9.686746987951807	0.7284813687305968	-0.6701397498121259	9.660467906418715	0.39497825273100245	-0.6658987313354746	-1.7558389928772569	-0.7914438649211395	0.022488755622188904	-1.1559220389805096	-0.017991004497751123	
1.7375793629537366E12	-0.6334306328403304	9.783132530120483	0.6924608743944882	-0.6701397498121259	9.660467906418715	0.39497825273100245	-0.46846263458118864	-1.7889680304787146	-0.6269371544385638	0.0239880059970015	-1.1499250374812593	-0.004497751124437781	
1.737579362958721E12	-0.6334306328403304	9.650602409638555	0.6924608743944882	-0.6563332739878224	9.667666466706658	0.3974951081670961	-0.4989762386357201	-1.4079840980619511	-0.6383638852794418	0.0239880059970015	-1.1499250374812593	-0.004497751124437781	
1.7375793629637053E12	-0.584760801028331	9.650602409638555	0.6447548016282709	-0.6563332739878224	9.667666466706658	0.3974951081670961	-0.4527379016819808	-1.5405002484677819	-0.6680168762123352	0.041979010494752625	-1.1619190404797601	-0.025487256371814093	
1.7375793629686897E12	-0.5245258606669454	9.72289156626506	0.6453571510318847	-0.6494566980741645	9.689262147570485	0.40008663580984216	-0.530450546243975	-1.6564518800728838	-0.5537202607479865	0.041979010494752625	-1.1619190404797601	-0.025487256371814093	
1.737579362973674E12	-0.6811367056065478	9.759036144578314	0.6437910425824888	-0.6494566980741645	9.689262147570485	0.40008663580984216	-0.48627935501540515	-1.5901938048699684	-0.3766586791639266	0.029985007496251874	-1.1514242878560719	-0.005997001499250375	
1.7375793629786584E12	-0.5958440300548258	9.807228915662652	0.5482584271693313	-0.6309380352238487	9.686862627474504	0.3979410221624143	-0.7322935284689143	-1.42454861686268	-0.2775384241652392	0.029985007496251874	-1.1514242878560719	-0.005997001499250375	
1.7375793629836428E12	-0.5960849698162713	9.74698795180723	0.5723524033138855	-0.6309380352238487	9.686862627474504	0.3979410221624143	-0.548252361592288	-1.6067583236706973	-0.3049322940636968	0.020989505247376312	-1.1454272863568216	-0.017991004497751123	
1.7375793629886272E12	-0.5365728487392225	9.698795180722891	0.645236681151162	-0.6007820835174509	9.684463107378523	0.391298171253605	-0.9782480815788095	-1.8552261056816297	-0.184380203527942	0.020989505247376312	-1.1454272863568216	-0.017991004497751123	
1.7375793629936116E12	-0.5486198368114996	9.698795180722891	0.6451162112704392	-0.6007820835174509	9.684463107378523	0.391298171253605	-1.222057156176336	-1.8055325492794434	-0.30576983412751024	0.022488755622188904	-1.1514242878560719	-0.008995502248875561	
1.7375793629985957E12	-0.584760801028331	9.698795180722891	0.6447548016282709	-0.5854007922259071	9.67246550689862	0.4305476944362312	-1.4181804615650992	-1.739274474076528	-0.6015556811623554	0.022488755622188904	-1.1514242878560719	-0.008995502248875561	
1.73757936300358E12	-0.5848812709090536	9.698795180722891	0.656801789700548	-0.5854007922259071	9.67246550689862	0.4305476944362312	-1.4346198019282113	-2.153387444094749	-0.48901521299816025	0.022488755622188904	-1.1514242878560719	-0.010494752623688156	
1.7375793630085645E12	-0.5850017407897764	9.686746987951807	0.6688487777728251	-0.5716361250052095	9.658068386322734	0.43515498005262165	-1.2372284204316357	-1.739274474076528	-0.32003697674454207	0.022488755622188904	-1.1514242878560719	-0.010494752623688156	
1.7375793630135488E12	-0.5606668248837767	9.734939759036145	0.6449957413897165	-0.5716361250052095	9.658068386322734	0.43515498005262165	-1.423127566714413	-1.9877422560874605	-0.10684516623098267	0.02848575712143928	-1.154422788605697	-0.0074962518740629685	
1.7375793630185332E12	-0.585242680551222	9.602409638554217	0.6929427539173794	-0.5828577921681163	9.655668866226755	0.4188711326552346	-1.3754732637981129	-1.6564518800728838	-0.2780947534199703	0.02848575712143928	-1.154422788605697	-0.0074962518740629685	
1.7375793630235176E12	-0.5851222106704992	9.63855421686747	0.6808957658451023	-0.5828577921681163	9.655668866226755	0.4188711326552346	-1.2076038116262522	-2.0043067748881893	-0.21971072098886635	0.025487256371814093	-1.1484257871064467	-0.01649175412293853	
1.737579363028502E12	-0.5733161623596676	9.698795180722891	0.7051102118703793	-0.5968939427569256	9.64367126574685	0.4278380154444322	-0.6586207764798705	-1.8552261056816297	0.012154217665451134	0.025487256371814093	-1.1484257871064467	-0.01649175412293853	
1.7375793630334863E12	-0.584760801028331	9.63855421686747	0.6447548016282709	-0.5968939427569256	9.64367126574685	0.4278380154444322	-0.7346150508871826	-1.6067583236706973	-0.04538618233840558	0.017991004497751123	-1.154422788605697	-0.0074962518740629685	
1.7375793630384705E12	-0.596807789100608	9.710843373493976	0.6446343317475481	-0.610336681460869	9.662867426514696	0.40713430399033074	-0.8130638324816082	-1.6730163988736126	0.1425241363690911	0.017991004497751123	-1.154422788605697	-0.0074962518740629685	
1.7375793630434548E12	-0.5251282100705592	9.602409638554217	0.7055920913932703	-0.610336681460869	9.662867426514696	0.40713430399033074	-0.7035529465507109	-1.623322842471426	-0.08880947969154829	0.0239880059970015	-1.1514242878560719	-0.017991004497751123	
1.7375793630484392E12	-0.5974101385042219	9.566265060240964	0.7048692721089337	-0.6130627495989838	9.67246550689862	0.4279642697875293	-0.8261795438563301	-1.6895809176743415	-0.07729829430573487	0.0239880059970015	-1.1514242878560719	-0.017991004497751123	
1.7375793630534236E12	-0.6806548260836567	9.734939759036145	0.5956030902933803	-0.6130627495989838	9.67246550689862	0.4279642697875293	-1.011842530773224	-1.3748550604604934	0.11227757961948007	0.029985007496251874	-1.1754122938530733	-0.014992503748125937	
1.737579363058408E12	-0.6211427050066077	9.698795180722891	0.6684873681306568	-0.6247038769195267	9.691661667666466	0.43265343027194464	-0.8859756056283814	-1.5405002484677819	-0.2232663896886598	0.029985007496251874	-1.1754122938530733	-0.014992503748125937	
1.7375793630633923E12	-0.7040259829438743	9.734939759036145	0.5230802220982721	-0.6247038769195267	9.691661667666466	0.43265343027194464	-1.008043765928125	-1.3417260228590357	-0.26759890489043203	0.020989505247376312	-1.1529235382308844	-0.01649175412293853	
1.7375793630683767E12	-0.6695715970571617	9.74698795180723	0.69209946475232	-0.6247514432198237	9.698860227954409	0.4350317452867922	-1.095342638798744	-1.6730163988736126	-0.7260730267105936	0.020989505247376312	-1.1529235382308844	-0.01649175412293853	
1.737579363073361E12	-0.6218655242909444	9.759036144578314	0.7407692965643194	-0.6247514432198237	9.698860227954409	0.4350317452867922	-1.0192302847084902	-1.639887361272155	-0.6803405950009092	0.017991004497751123	-1.1559220389805096	-0.010494752623688156	
1.7375793630783455E12	-0.6095775964572218	9.74698795180723	0.716795790300488	-0.652596948481282	9.694061187762447	0.4416257150571715	-1.386240954824071	-1.7558389928772569	-0.7327192189711366	0.017991004497751123	-1.1559220389805096	-0.010494752623688156	
1.7375793630833296E12	-0.5730752225982221	9.72289156626506	0.681016235725825	-0.652596948481282	9.694061187762447	0.4416257150571715	-1.3251735047028956	-1.4576776544641377	-0.7138899585006271	0.019490254872563718	-1.154422788605697	-0.008995502248875561	
1.737579363088314E12	-0.5971691987427763	9.759036144578314	0.6807752959643795	-0.6342137874109933	9.677264547090582	0.44625519041109807	-1.3572526206953928	-1.5073712108663242	-0.5687654955449493	0.019490254872563718	-1.154422788605697	-0.008995502248875561	
1.7375793630932983E12	-0.717880019226993	9.759036144578314	0.703664573301706	-0.6342137874109933	9.677264547090582	0.44625519041109807	-1.08329196657907	-1.242338910054663	-0.39974668053100176	0.014992503748125937	-1.1619190404797601	-0.010494752623688156	
1.7375793630982827E12	-0.6215041146487761	9.698795180722891	0.7046283323474881	-0.6435896355466058	9.684463107378523	0.45315383275753496	-1.0357524311043993	-1.225774391253934	-0.5595195235570055	0.014992503748125937	-1.1619190404797601	-0.010494752623688156	
1.737579363103267E12	-0.5733161623596676	9.72289156626506	0.7051102118703793	-0.6435896355466058	9.684463107378523	0.45315383275753496	-1.1126390130021713	-0.8282259400364419	-0.5278291745148761	0.017991004497751123	-1.1499250374812593	-0.019490254872563718	
1.7375793631082515E12	-0.6092161868150534	9.819277108433736	0.6806548260836567	-0.6230829345761622	9.67246550689862	0.46707975421226733	-0.9279047682301681	-0.6294517144276959	-0.6245308339510333	0.017991004497751123	-1.1499250374812593	-0.019490254872563718	
1.7375793631132358E12	-0.6206608254837167	9.795180722891567	0.6202994158415484	-0.6230829345761622	9.67246550689862	0.46707975421226733	-0.9448606474663876	-0.2650323008116614	-0.4603364784760929	0.014992503748125937	-1.1559220389805096	-0.005997001499250375	
1.7375793631182202E12	-0.584760801028331	9.698795180722891	0.6447548016282709	-0.6413248361697328	9.6748650269946	0.45538730502243563	-1.1453742771192448	-0.1656451880072884	-0.31708989910155677	0.014992503748125937	-1.1559220389805096	-0.005997001499250375	
1.7375793631232043E12	-0.561028234525945	9.698795180722891	0.6811367056065478	-0.6413248361697328	9.6748650269946	0.45538730502243563	-1.3436894323987432	-0.11595163160510186	-0.39369075706289963	0.01199400299850075	-1.158920539730135	-0.005997001499250375	
1.7375793631281887E12	-0.6088547771728852	9.710843373493976	0.6445138618668254	-0.6365698809239995	9.682063587282542	0.4485864249528589	-1.037596666428933	-0.3312903760145768	-0.3750959911036432	0.01199400299850075	-1.158920539730135	-0.005997001499250375	
1.737579363133173E12	-0.6090957169343306	9.686746987951807	0.6686078380113796	-0.6365698809239995	9.682063587282542	0.4485864249528589	-1.0970820434055832	-0.3644194136160344	-0.5521325660266502	0.01199400299850075	-1.154422788605697	-0.013493253373313342	
1.7375793631381575E12	-0.6339125123632215	9.734939759036145	0.7406488266835967	-0.6344910284757961	9.679664067186561	0.4601172436512369	-0.7164854944205393	-0.5466291204240517	-0.3269482608557052	0.01199400299850075	-1.154422788605697	-0.013493253373313342	
1.7375793631431418E12	-0.6090957169343306	9.74698795180723	0.6686078380113796	-0.6344910284757961	9.679664067186561	0.4601172436512369	-0.5489250709234238	-0.7288388272320688	-0.23766136095011342	0.03298350824587706	-1.1754122938530733	-0.020989505247376312	
1.7375793631481262E12	-0.5986148373114496	9.74698795180723	0.8253391528317048	-0.650837625509545	9.6748650269946	0.46913300757886445	-0.41039769681269705	-0.71227430843134	-0.30785665869966633	0.03298350824587706	-1.1754122938530733	-0.020989505247376312	
1.7375793631531106E12	-0.6457185606740531	9.686746987951807	0.7164343806583197	-0.650837625509545	9.6748650269946	0.46913300757886445	-0.08823970297647125	-1.1595163160510187	-0.3643911112349584	0.017991004497751123	-1.1709145427286356	-0.005997001499250375	
1.737579363158095E12	-0.6098185362186673	9.674698795180724	0.7408897664450422	-0.6303338033874469	9.677264547090582	0.4832028714508722	-0.0564629911760953	-1.010435646844459	-0.4792751549785249	0.017991004497751123	-1.1709145427286356	-0.005997001499250375	
1.737579363163079E12	-0.6095775964572218	9.759036144578314	0.716795790300488	-0.6303338033874469	9.677264547090582	0.4832028714508722	0.06701782284489714	-0.71227430843134	-0.5762080119016585	0.013493253373313342	-1.1409295352323838	-0.01649175412293853	
1.7375793631680635E12	-0.6335511027210532	9.72289156626506	0.7045078624667653	-0.6233611352570801	9.679664067186561	0.4809897882581645	0.11048434333349837	-0.9110485340400861	-0.3286793563207398	0.013493253373313342	-1.1409295352323838	-0.01649175412293853	
1.7375793631730479E12	-0.6335511027210532	9.698795180722891	0.7045078624667653	-0.6233611352570801	9.679664067186561	0.4809897882581645	0.35337130026875807	-0.513500082822594	-0.11507795949449037	0.01649175412293853	-1.1604197901049476	-0.013493253373313342	
1.7375793631780322E12	-0.6337920424824988	9.698795180722891	0.7286018386113196	-0.6392027356937507	9.686862627474504	0.4647557223318791	0.18566464303754976	-0.3312903760145768	-0.18974148599080912	0.01649175412293853	-1.1604197901049476	-0.013493253373313342	
1.7375793631830166E12	-0.6696920669378845	9.698795180722891	0.7041464528245971	-0.6392027356937507	9.686862627474504	0.4647557223318791	0.27634014075754926	-0.1325161504058307	-0.06892984910868206	0.01649175412293853	-1.154422788605697	-0.010494752623688156	
1.737579363188001E12	-0.5971691987427763	9.74698795180723	0.6807752959643795	-0.6441902445523354	9.689262147570485	0.4831842830440224	0.18633784748505544	0.24846778201093256	-0.2570619307413787	0.01649175412293853	-1.154422788605697	-0.010494752623688156	
1.7375793631929854E12	-0.6455980907933303	9.66265060240964	0.7043873925860425	-0.6441902445523354	9.689262147570485	0.4831842830440224	-0.10500910646648559	0.2650323008116614	-0.21884433038053736	0.013493253373313342	-1.1469265367316341	-0.01199400299850075	
1.7375793631979697E12	-0.6696920669378845	9.686746987951807	0.7041464528245971	-0.6326034008448957	9.710857828434312	0.48120930321476385	-0.3502904551288751	0.41411297001822095	-0.19300655449380966	0.013493253373313342	-1.1469265367316341	-0.01199400299850075	
1.737579363202954E12	-0.6457185606740531	9.626506024096386	0.7164343806583197	-0.6326034008448957	9.710857828434312	0.48120930321476385	-0.5197469488072284	0.5466291204240517	-0.09268643627563375	0.014992503748125937	-1.1559220389805096	-0.01649175412293853	
1.7375793632079382E12	-0.6454776209126075	9.698795180722891	0.6923404045137654	-0.6575849371479243	9.698860227954409	0.46007826617219405	-0.4426026779750457	0.4969355640218651	-0.15014567875883175	0.014992503748125937	-1.1559220389805096	-0.01649175412293853	
1.7375793632129226E12	-0.6457185606740531	9.698795180722891	0.7164343806583197	-0.6575849371479243	9.698860227954409	0.46007826617219405	-0.2582740119922018	0.3644194136160344	-0.20628945927905298	0.010494752623688156	-1.1559220389805096	-0.020989505247376312	
1.737579363217907E12	-0.6451162112704392	9.734939759036145	0.6561994402969341	-0.6574902843553879	9.686862627474504	0.4553456265453781	-0.21133431653980578	0.5300646016233228	-0.3060783000776168	0.010494752623688156	-1.1559220389805096	-0.020989505247376312	
1.7375793632228914E12	-0.6687283078921024	9.771084337349398	0.6077705482463802	-0.6574902843553879	9.686862627474504	0.4553456265453781	-0.307014883632077	0.6625807520291536	0.07361700026742474	0.017991004497751123	-1.1514242878560719	-0.01649175412293853	
1.7375793632278757E12	-0.658367898149944	9.674698795180724	0.7765488511389824	-0.671617249272273	9.667666466706658	0.46885322573835775	-0.2902002697679824	0.24846778201093256	-0.07645081799502507	0.017991004497751123	-1.1514242878560719	-0.01649175412293853	
1.73757936323286E12	-0.6816185851294388	9.710843373493976	0.6919789948715972	-0.671617249272273	9.667666466706658	0.46885322573835775	-0.10644991423888565	0.04969355640218651	-0.0747635531405306	0.029985007496251874	-1.169415292353823	-0.029985007496251874	
1.7375793632378445E12	-0.6816185851294388	9.650602409638555	0.6919789948715972	-0.6712443957988186	9.648470305938812	0.45021055206564453	0.16828331156429954	-0.09938711280437303	0.01699809318719721	0.029985007496251874	-1.169415292353823	-0.029985007496251874	
1.7375793632428289E12	-0.7298065374185473	9.614457831325302	0.6914971153487061	-0.6712443957988186	9.648470305938812	0.45021055206564453	0.1233660465793626	-0.016564518800728838	-0.08545611276014974	0.017991004497751123	-1.1634182908545727	-0.01199400299850075	
1.737579363247813E12	-0.6696920669378845	9.626506024096386	0.7041464528245971	-0.6754919554071858	9.641271745650869	0.4316416502669121	0.16915574560688812	-0.04969355640218651	-0.07024531107165885	0.017991004497751123	-1.1634182908545727	-0.01199400299850075	
1.7375793632527974E12	-0.6696920669378845	9.66265060240964	0.7041464528245971	-0.6754919554071858	9.641271745650869	0.4316416502669121	0.3196289612195949	-0.016564518800728838	0.19636880912779897	0.014992503748125937	-1.1529235382308844	-0.014992503748125937	
1.7375793632577817E12	-0.6458390305547759	9.602409638554217	0.7284813687305968	-0.6621919156041334	9.64367126574685	0.4594803067655564	0.2747282574412174	-0.09938711280437303	0.09225848252451031	0.014992503748125937	-1.1529235382308844	-0.014992503748125937	
1.737579363262766E12	-0.6215041146487761	9.590361445783133	0.7046283323474881	-0.6621919156041334	9.64367126574685	0.4594803067655564	0.4285631928174011	-0.04969355640218651	0.022700626376281105	0.020989505247376312	-1.1634182908545727	-0.014992503748125937	
1.7375793632677505E12	-0.7054716215125475	9.650602409638555	0.6676440789655974	-0.6875924322567403	9.650869826034793	0.4592982872019098	0.07406673793361156	0.016564518800728838	0.25029404737391364	0.020989505247376312	-1.1634182908545727	-0.014992503748125937	
1.7375793632727349E12	-0.5734366322403904	9.650602409638555	0.7171571999426564	-0.6875924322567403	9.650869826034793	0.4592982872019098	0.3681805399883229	0.11595163160510186	-0.06460836330395726	0.0239880059970015	-1.1619190404797601	-0.014992503748125937	
1.7375793632777192E12	-0.6576450788656074	9.674698795180724	0.7042669227053198	-0.6507410534847783	9.653269346130774	0.4643044063405315	0.4284037101180608	0.0828225940036442	0.03864889631030756	0.0239880059970015	-1.1619190404797601	-0.014992503748125937	
1.7375793632827036E12	-0.5981329577885585	9.63855421686747	0.7771512005425963	-0.6507410534847783	9.653269346130774	0.4643044063405315	0.35345460141792506	0.11595163160510186	-0.12340807441118502	0.0239880059970015	-1.1634182908545727	-0.008995502248875561	
1.737579363287688E12	-0.6580064885077758	9.650602409638555	0.7404078869221511	-0.6483436311762238	9.67246550689862	0.45990673202135324	0.3076632462697436	0.1656451880072884	-0.13845326403408173	0.0239880059970015	-1.1634182908545727	-0.008995502248875561	
1.737579363292672E12	-0.6216245845294989	9.602409638554217	0.7166753204197652	-0.6483436311762238	9.67246550689862	0.45990673202135324	0.33460430812112374	0.41411297001822095	0.23022768712192893	0.0239880059970015	-1.169415292353823	-0.01199400299850075	
1.7375793632976565E12	-0.6334306328403304	9.590361445783133	0.6924608743944882	-0.6395659930060533	9.658068386322734	0.4829185879470077	0.2901240882178091	0.513500082822594	0.08406897301235686	0.0239880059970015	-1.169415292353823	-0.01199400299850075	
1.7375793633026409E12	-0.6575246089848846	9.698795180722891	0.6922199346330427	-0.6395659930060533	9.658068386322734	0.4829185879470077	0.36579939722644067	0.5300646016233228	0.17350591288426648	0.022488755622188904	-1.1619190404797601	-0.017991004497751123	
1.7375793633076252E12	-0.6935451033209932	9.698795180722891	0.6798115369185973	-0.6277941619860592	9.677264547090582	0.4716942424900303	0.39876254010611784	0.513500082822594	-0.060021238789426445	0.022488755622188904	-1.1619190404797601	-0.017991004497751123	
1.7375793633126096E12	-0.6822209345330527	9.759036144578314	0.7522139352329827	-0.6277941619860592	9.677264547090582	0.4716942424900303	0.05929774022615921	0.44724200761967864	0.19580024997213433	0.020989505247376312	-1.1574212893553224	-0.010494752623688156	
1.737579363317594E12	-0.7060739709161614	9.710843373493976	0.727879019326983	-0.651020693589869	9.667666466706658	0.47828641159506646	0.3345744979493168	0.71227430843134	0.233208704302624	0.037481259370314844	-1.1634182908545727	-0.0239880059970015	
1.7375793633225784E12	-0.6096980663379445	9.710843373493976	0.7288427783727651	-0.651020693589869	9.667666466706658	0.47828641159506646	-0.046891172837003885	0.811661421235713	0.09493657925934675	0.037481259370314844	-1.1634182908545727	-0.0239880059970015	
1.7375793633275627E12	-0.6216245845294989	9.72289156626506	0.7166753204197652	-0.6649208625905938	9.667666466706658	0.4804542149800304	0.010804620796759052	1.1926453536524764	0.4509314884711085	0.008995502248875561	-1.1514242878560719	-0.010494752623688156	
1.7375793633325469E12	-0.6453571510318847	9.759036144578314	0.6802934164414883	-0.6649208625905938	9.667666466706658	0.4804542149800304	0.1973151999464023	1.1760808348517475	0.17659639127094998	0.008995502248875561	-1.1514242878560719	-0.010494752623688156	
1.7375793633375312E12	-0.6690897175342707	9.74698795180723	0.6439115124632115	-0.6831613247599915	9.662867426514696	0.4686897945815609	0.13799427403105988	0.9607420904422725	-0.01688528978286597	0.017991004497751123	-1.1469265367316341	-0.01649175412293853	
1.7375793633425156E12	-0.6454776209126075	9.674698795180724	0.6923404045137654	-0.6831613247599915	9.662867426514696	0.4686897945815609	-0.06193607680608227	1.0766937220473745	0.0680334080201719	0.017991004497751123	-1.1469265367316341	-0.01649175412293853	
1.7375793633475E12	-0.6213836447680533	9.710843373493976	0.692581344275211	-0.6784938251859306	9.64607078584283	0.46626169809561174	0.08985158629280317	1.126387278449561	0.20320277960176603	0.0239880059970015	-1.1529235382308844	-0.005997001499250375	
1.7375793633524844E12	-0.6812571754872705	9.771084337349398	0.6558380306547659	-0.6784938251859306	9.64607078584283	0.46626169809561174	0.11910257771786008	1.6730163988736126	0.3408907733901022	0.0239880059970015	-1.1529235382308844	-0.005997001499250375	
1.7375793633574688E12	-0.6692101874149934	9.698795180722891	0.6559585005354887	-0.6945189735109829	9.648470305938812	0.45920502658840756	-0.18808056433320675	1.0932582408481033	0.43133361555651045	0.037481259370314844	-1.158920539730135	-0.013493253373313342	
1.7375793633624531E12	-0.5975306083849447	9.650602409638555	0.7169162601812108	-0.6945189735109829	9.648470305938812	0.45920502658840756	0.14960293280714404	1.42454861686268	0.35364240075573355	0.037481259370314844	-1.158920539730135	-0.013493253373313342	
1.7375793633674375E12	-0.6575246089848846	9.686746987951807	0.6922199346330427	-0.6898567518255556	9.658068386322734	0.45704082453412986	0.1793141550030064	1.7558389928772569	0.44530731746352625	0.02848575712143928	-1.1604197901049476	-0.019490254872563718	
1.7375793633724216E12	-0.681016235725825	9.674698795180724	0.6317440545102117	-0.6898567518255556	9.658068386322734	0.45704082453412986	0.3936862575456407	1.5570647672685107	0.44760701725829144	0.02848575712143928	-1.1604197901049476	-0.019490254872563718	
1.737579363377406E12	-0.6451162112704392	9.66265060240964	0.6561994402969341	-0.6693087220595637	9.670065986802639	0.46890030621144463	0.05802187863143709	1.5073712108663242	0.32338640944434593	0.020989505247376312	-1.154422788605697	-0.013493253373313342	
1.7375793633823904E12	-0.6696920669378845	9.66265060240964	0.7041464528245971	-0.6693087220595637	9.670065986802639	0.46890030621144463	0.1810507424849038	1.938048699685274	0.27164856927378495	0.020989505247376312	-1.154422788605697	-0.013493253373313342	
1.7375793633873748E12	-0.6458390305547759	9.686746987951807	0.7284813687305968	-0.6626584622540087	9.670065986802639	0.4828076392593272	0.20888245570608788	2.054000331290376	0.5512643834494038	0.017991004497751123	-1.154422788605697	-0.019490254872563718	
1.7375793633923591E12	-0.6457185606740531	9.674698795180724	0.7164343806583197	-0.6626584622540087	9.670065986802639	0.4828076392593272	-0.066136613082659	2.13682292529402	0.4880870356778454	0.017991004497751123	-1.154422788605697	-0.019490254872563718	
1.7375793633973435E12	-0.633671572601776	9.72289156626506	0.7165548505390424	-0.6558664631636779	9.653269346130774	0.4896280080684253	0.039454116078885625	1.9049196620838162	0.6487690965524787	0.017991004497751123	-1.1529235382308844	-0.014992503748125937	
1.737579363402328E12	-0.6217450544102217	9.674698795180724	0.7287223084920423	-0.6558664631636779	9.653269346130774	0.4896280080684253	0.10362062866715945	1.921484180884545	0.3576921103131525	0.017991004497751123	-1.1529235382308844	-0.014992503748125937	
1.7375793634073123E12	-0.5864473793584497	9.506024096385543	0.8134126346401505	-0.6605272454249327	9.636472705458907	0.49172023891406524	0.14574951598039884	1.938048699685274	0.7389840834302532	0.043478260869565216	-1.176911544227886	-0.02848575712143928	
1.7375793634122966E12	-0.6339125123632215	9.66265060240964	0.7406488266835967	-0.6605272454249327	9.636472705458907	0.49172023891406524	0.37966995807717924	1.7724035116779857	0.3178433959574224	0.043478260869565216	-1.176911544227886	-0.02848575712143928	
1.7375793634172808E12	-0.6217450544102217	9.590361445783133	0.7287223084920423	-0.6443180694034412	9.636472705458907	0.48957552559930906	0.580027417272008	1.7724035116779857	0.19021386238572446	0.019490254872563718	-1.154422788605697	-0.014992503748125937	
1.7375793634222651E12	-0.6098185362186673	9.578313253012048	0.7408897664450422	-0.6443180694034412	9.636472705458907	0.48957552559930906	0.7159176158070978	1.838661586880901	0.38373612219986974	0.019490254872563718	-1.154422788605697	-0.014992503748125937	
1.7375793634272495E12	-0.6577655487463302	9.66265060240964	0.7163139107775969	-0.630190144870441	9.650869826034793	0.4760199456005709	0.28403245012196243	1.4742421732648665	0.6932327825970156	0.025487256371814093	-1.1484257871064467	-0.020989505247376312	
1.737579363432234E12	-0.5970487288620535	9.698795180722891	0.6687283078921024	-0.630190144870441	9.650869826034793	0.4760199456005709	0.3797080488522659	1.3914195792612223	0.3140343184487565	0.025487256371814093	-1.1484257871064467	-0.020989505247376312	
1.7375793634372183E12	-0.6219859941716671	9.674698795180724	0.7528162846365966	-0.6347668301164261	9.6748650269946	0.47390732568273797	0.410173625407775	1.4908066920655954	0.3302637991918654	0.022488755622188904	-1.154422788605697	-0.010494752623688156	
1.7375793634422026E12	-0.6216245845294989	9.698795180722891	0.7166753204197652	-0.6347668301164261	9.6748650269946	0.47390732568273797	-0.00729463038170727	1.2920324664568494	0.7294630381707269	0.022488755622188904	-1.154422788605697	-0.010494752623688156	
1.737579363447187E12	-0.6457185606740531	9.686746987951807	0.7164343806583197	-0.6347207032403019	9.6748650269946	0.47160098187652805	-0.03618641439597119	1.5405002484677819	0.5558543033030916	0.01649175412293853	-1.1529235382308844	-0.01649175412293853	
1.7375793634521714E12	-0.6577655487463302	9.698795180722891	0.7163139107775969	-0.6347207032403019	9.6748650269946	0.47160098187652805	-0.054729335138683534	1.6895809176743415	0.8787528094273118	0.01649175412293853	-1.1529235382308844	-0.01649175412293853	
1.7375793634571555E12	-0.6215041146487761	9.66265060240964	0.7046283323474881	-0.6301022093907108	9.67246550689862	0.47162317161406414	-0.03751742308870925	1.6895809176743415	0.688955172576897	0.01649175412293853	-1.1574212893553224	-0.005997001499250375	
1.73757936346214E12	-0.6098185362186673	9.686746987951807	0.7408897664450422	-0.6301022093907108	9.67246550689862	0.47162317161406414	0.11647037050419093	1.6730163988736126	0.6041114947570179	0.01649175412293853	-1.1574212893553224	-0.005997001499250375	
1.7375793634671243E12	-0.6219859941716671	9.66265060240964	0.7528162846365966	-0.6148592987275396	9.660467906418715	0.5177917262153201	0.1923333162633138	1.2754679476561206	0.6747847595798002	0.017991004497751123	-1.1634182908545727	-0.022488755622188904	
1.7375793634721086E12	-0.6098185362186673	9.686746987951807	0.7408897664450422	-0.6148592987275396	9.660467906418715	0.5177917262153201	0.4046101190296275	1.5570647672685107	0.8866144370066197	0.017991004497751123	-1.1634182908545727	-0.022488755622188904	
1.737579363477093E12	-0.6103004157415584	9.698795180722891	0.7890777187341507	-0.6127319203629241	9.64607078584283	0.5268962490930921	0.6011969674305082	1.242338910054663	1.1360459828297331	0.02848575712143928	-1.158920539730135	-0.013493253373313342	
1.7375793634820774E12	-0.5739185117632815	9.650602409638555	0.7653451522317648	-0.6127319203629241	9.64607078584283	0.5268962490930921	0.8020295624820459	0.8779194964386284	0.9609028635871439	0.02848575712143928	-1.158920539730135	-0.013493253373313342	
1.7375793634870618E12	-0.5858450299548358	9.674698795180724	0.7531776942787649	-0.5850699629898474	9.64607078584283	0.529479673741794	0.6026990516671781	0.8447904588371707	0.985837559162742	0.022488755622188904	-1.1469265367316341	-0.01199400299850075	
1.7375793634920461E12	-0.5737980418825587	9.66265060240964	0.7532981641594877	-0.5850699629898474	9.64607078584283	0.529479673741794	0.10022694749484981	0.7619678648335265	0.6970602275441149	0.022488755622188904	-1.1469265367316341	-0.01199400299850075	
1.7375793634970305E12	-0.5618715236910043	9.674698795180724	0.7654656221124876	-0.5591663689723926	9.660467906418715	0.5045078250630446	0.282799152547925	0.6460162332284247	0.8165625400007649	0.017991004497751123	-1.1799100449775113	-0.038980509745127435	
1.7375793635020146E12	-0.5135631015211731	9.650602409638555	0.7539005135631015	-0.5591663689723926	9.660467906418715	0.5045078250630446	0.02208719457516904	0.5300646016233228	0.8540676787771238	0.017991004497751123	-1.1799100449775113	-0.038980509745127435	
1.737579363506999E12	-0.5018775230910644	9.626506024096386	0.7901619476606556	-0.5640159770106622	9.665266946610677	0.5160413447594374	-0.31268487684857466	0.3312903760145768	0.6406163219171921	0.034482758620689655	-1.1649175412293853	-0.01649175412293853	
1.7375793635119834E12	-0.5740389816440042	9.686746987951807	0.7773921403040419	-0.5640159770106622	9.665266946610677	0.5160413447594374	-0.20415953628123976	0.0	0.5078372422127985	0.034482758620689655	-1.1649175412293853	-0.01649175412293853	
1.7375793635169678E12	-0.48995100489951005	9.63855421686747	0.8023294056136555	-0.5157098976548846	9.658068386322734	0.5256796402500004	-0.6614318447243813	-0.06625807520291535	0.29326104211653714	0.013493253373313342	-1.158920539730135	-0.017991004497751123	
1.7375793635219521E12	-0.5264533787585097	9.650602409638555	0.8381089601883185	-0.5157098976548846	9.658068386322734	0.5256796402500004	-0.4912474946168763	-0.1656451880072884	0.12015528098318413	0.013493253373313342	-1.158920539730135	-0.017991004497751123	
1.7375793635269365E12	-0.5269352582814008	9.674698795180724	0.8862969124774269	-0.5168207811463259	9.677264547090582	0.5812238148220724	-0.38561205019762124	-0.8447904588371707	0.27636581608677485	0.01649175412293853	-1.1454272863568216	-0.019490254872563718	
1.737579363531921E12	-0.47862683611156953	9.63855421686747	0.874731803928041	-0.5168207811463259	9.677264547090582	0.5812238148220724	-0.3680463942151916	-1.4576776544641377	0.05119378599082953	0.01649175412293853	-1.1454272863568216	-0.019490254872563718	
1.7375793635369053E12	-0.5148882702091236	9.590361445783133	0.8864173823581497	-0.5406954880561623	9.679664067186561	0.6202247492284436	-0.4775109087677226	-1.9711777372867316	0.27789026421483215	0.017991004497751123	-1.1454272863568216	-0.013493253373313342	
1.7375793635418894E12	-0.5385003668307868	9.63855421686747	0.8379884903075957	-0.5406954880561623	9.679664067186561	0.6202247492284436	-0.7383873178017867	-1.9049196620838162	0.33184050912199986	0.017991004497751123	-1.1454272863568216	-0.013493253373313342	
1.7375793635468738E12	-0.5387413065922323	9.734939759036145	0.8620824664521499	-0.55427228911596	9.677264547090582	0.6062241555670588	-0.7225146950478301	-1.6730163988736126	0.2759718018733612	0.014992503748125937	-1.1574212893553224	-0.01199400299850075	
1.7375793635518582E12	-0.5139245111633415	9.72289156626506	0.7900414777799328	-0.55427228911596	9.677264547090582	0.6062241555670588	-0.9673639669905653	-1.4576776544641377	0.25860190579464626	0.014992503748125937	-1.1574212893553224	-0.01199400299850075	
1.7375793635568425E12	-0.4897100651380645	9.771084337349398	0.7782354294691013	-0.5256411875362177	9.6748650269946	0.5603503698824732	-0.8431138935240223	-1.5405002484677819	0.08474310431648133	0.008995502248875561	-1.1619190404797601	-0.01649175412293853	
1.737579363561827E12	-0.48995100489951005	9.74698795180723	0.8023294056136555	-0.5256411875362177	9.6748650269946	0.5603503698824732	-1.2279611575216913	-1.2589034288553917	0.2846303004080212	0.008995502248875561	-1.1619190404797601	-0.01649175412293853	
1.7375793635668113E12	-0.5021184628525099	9.698795180722891	0.8142559238052098	-0.5309078566918354	9.689262147570485	0.5927369454462721	-1.0297723625284145	-1.5073712108663242	0.37386718699150706	0.01649175412293853	-1.1604197901049476	-0.008995502248875561	
1.7375793635717957E12	-0.538379896950064	9.614457831325302	0.8259415022353186	-0.5309078566918354	9.689262147570485	0.5927369454462721	-0.9096897029253295	-0.8613549776378996	0.6167497718591322	0.01649175412293853	-1.1604197901049476	-0.008995502248875561	
1.73757936357678E12	-0.5142859208055098	9.819277108433736	0.8261824419967642	-0.5399550589978873	9.667666466706658	0.5832032963146887	-0.5104271851526635	-0.9607420904422725	0.5067307664149022	0.025487256371814093	-1.1649175412293853	-0.019490254872563718	
1.7375793635817642E12	-0.4658570287549558	9.74698795180723	0.8025703453751011	-0.5399550589978873	9.667666466706658	0.5832032963146887	-0.5865345708809496	-1.0435646844459168	0.4605014985084352	0.025487256371814093	-1.1649175412293853	-0.019490254872563718	
1.7375793635867485E12	-0.40610396791646136	9.63855421686747	0.8513606470678233	-0.5194055898077228	9.67246550689862	0.5949908067833658	-0.2183424380480351	-1.0435646844459168	0.3947338507453187	0.014992503748125937	-1.1679160419790104	-0.029985007496251874	
1.737579363591733E12	-0.38225093153335266	9.566265060240964	0.8756955629738231	-0.5194055898077228	9.67246550689862	0.5949908067833658	-0.2947373228825388	-1.1760808348517475	0.37725449346061535	0.014992503748125937	-1.1679160419790104	-0.029985007496251874	
1.7375793635967173E12	-0.46549561911278753	9.795180722891567	0.7664293811582698	-0.48921118815412196	9.708458308338331	0.5864254585144142	-0.3113858295646694	-0.9607420904422725	0.5107115935266621	0.02848575712143928	-1.1649175412293853	-0.01199400299850075	
1.7375793636017017E12	-0.36899924465384787	9.734939759036145	0.7553461521317748	-0.48921118815412196	9.708458308338331	0.5864254585144142	-0.2954883650008737	-0.9773066092430014	0.4523587052941109	0.02848575712143928	-1.1649175412293853	-0.01199400299850075	
1.737579363606686E12	-0.39417744972490704	9.759036144578314	0.8635281050208232	-0.42234223830413475	9.708458308338331	0.5917077581628565	-0.10837297746698826	-1.1926453536524764	0.11754276966973001	0.013493253373313342	-1.1574212893553224	-0.019490254872563718	
1.7375793636116704E12	-0.35731366622373906	9.72289156626506	0.7916075862293288	-0.42234223830413475	9.708458308338331	0.5917077581628565	-0.10412888693698719	-1.225774391253934	-0.3068662833303781	0.013493253373313342	-1.1574212893553224	-0.019490254872563718	
1.7375793636166548E12	-0.3692401844152934	9.74698795180723	0.779440128276329	-0.3835941155481783	9.696460707858428	0.6173501192102997	0.060593475268752625	-0.811661421235713	0.06622674571279266	0.0239880059970015	-1.1514242878560719	-0.013493253373313342	
1.7375793636216392E12	-0.3459894974357986	9.795180722891567	0.8640099845437142	-0.3835941155481783	9.696460707858428	0.6173501192102997	0.7020730577704843	-1.126387278449561	0.23679835771419327	0.0239880059970015	-1.1514242878560719	-0.013493253373313342	
1.7375793636266233E12	-0.40574255827429306	9.759036144578314	0.815219682850992	-0.3831832919355788	9.718056388722255	0.5968089385803236	1.1924365255001805	-0.8944840152393573	0.2050457654490244	0.03298350824587706	-1.158920539730135	-0.008995502248875561	
1.7375793636316077E12	-0.38164858212973884	9.72289156626506	0.8154606226124376	-0.3831832919355788	9.718056388722255	0.5968089385803236	1.4081346683735851	-1.1926453536524764	0.07474143216676674	0.03298350824587706	-1.158920539730135	-0.008995502248875561	
1.737579363636592E12	-0.34490526850929365	9.759036144578314	0.7555870918932203	-0.3570471443052725	9.722855428914217	0.5602094092590076	1.3459872740114585	-0.9276130528408149	0.1639065957913705	0.031484257871064465	-1.1499250374812593	-0.017991004497751123	
1.7375793636415764E12	-0.33309922019846205	9.759036144578314	0.7798015379184973	-0.3570471443052725	9.722855428914217	0.5602094092590076	1.0125263378325815	-1.0766937220473745	-0.18065828555523647	0.031484257871064465	-1.1499250374812593	-0.017991004497751123	
1.7375793636465608E12	-0.2846703281479081	9.795180722891567	0.7561894412968342	-0.3473974137612605	9.730053989202158	0.5396166464925867	0.9085590848319604	-0.9938711280437302	-0.5036879625222214	0.019490254872563718	-1.1469265367316341	-0.017991004497751123	
1.7375793636515452E12	-0.3334606298406304	9.710843373493976	0.8159425021353286	-0.3473974137612605	9.730053989202158	0.5396166464925867	0.6605241370316481	-1.0932582408481033	-0.20249027284321736	0.019490254872563718	-1.1469265367316341	-0.017991004497751123	
1.7375793636565295E12	-0.3091257139346306	9.734939759036145	0.79208946575222	-0.34812728704226875	9.689262147570485	0.5761103105429985	0.784603134954259	-0.9276130528408149	-0.3592415199281967	0.01199400299850075	-1.1529235382308844	-0.017991004497751123	
1.737579363661514E12	-0.48910771573445067	9.72289156626506	0.7180004891077157	-0.34812728704226875	9.689262147570485	0.5761103105429985	1.319935207409226	-1.2920324664568494	-0.2936738802794379	0.01199400299850075	-1.1529235382308844	-0.017991004497751123	
1.737579363666498E12	-0.35767507586590735	9.674698795180724	0.8277485504461601	-0.35980542488584166	9.662867426514696	0.5826499971789183	1.9468118993854695	-1.3748550604604934	-0.19420678387621979	0.0239880059970015	-1.1499250374812593	-0.019490254872563718	
1.7375793636714824E12	-0.4176690764658474	9.686746987951807	0.8030522248979921	-0.35980542488584166	9.662867426514696	0.5826499971789183	2.5443779795930426	-1.4079840980619511	-0.22646564689994775	0.0239880059970015	-1.1499250374812593	-0.019490254872563718	
1.7375793636764668E12	-0.4421244622525699	9.734939759036145	0.8389522493533779	-0.3761986286037723	9.660467906418715	0.593996095315635	2.7300525593545277	-1.838661586880901	-0.41720080528432185	0.022488755622188904	-1.1574212893553224	-0.025487256371814093	
1.7375793636814512E12	-0.39393650996346147	9.771084337349398	0.839434128876269	-0.3761986286037723	9.660467906418715	0.593996095315635	2.9579939795600656	-2.1699519628954778	-0.2404393036328975	0.022488755622188904	-1.1574212893553224	-0.025487256371814093	
1.7375793636864355E12	-0.3934546304405704	9.843373493975903	0.7912461765871606	-0.38511464740231544	9.6748650269946	0.5779032708086104	3.2216653907484507	-2.4018552261056816	-0.5738897639721956	0.022488755622188904	-1.1619190404797601	-0.01199400299850075	
1.73757936369142E12	-0.35779554574663014	9.795180722891567	0.8397955385184372	-0.38511464740231544	9.6748650269946	0.5779032708086104	3.481812287232707	-2.484677820109326	-0.554888753898592	0.022488755622188904	-1.1619190404797601	-0.01199400299850075	
1.7375793636964043E12	-0.26105823152624497	9.734939759036145	0.8046183333473882	-0.38715073163079766	9.694061187762447	0.564234041124177	3.4650655743155063	-2.749710120920987	-0.41161103032550317	0.02848575712143928	-1.158920539730135	-0.014992503748125937	
1.7375793637013887E12	-0.36863783501167957	9.710843373493976	0.7192051879149435	-0.38715073163079766	9.694061187762447	0.564234041124177	3.5248947585006767	-3.2300811661421234	-0.26895517625446164	0.02848575712143928	-1.158920539730135	-0.014992503748125937	
1.7375793637063728E12	-0.35707272646229354	9.795180722891567	0.7675136100847746	-0.384153180124571	9.710857828434312	0.5298299069213904	3.4941416828389493	-3.379161835348683	-0.25643474637580677	0.025487256371814093	-1.158920539730135	-0.017991004497751123	
1.7375793637113572E12	-0.296837786100908	9.72289156626506	0.7681159594883885	-0.384153180124571	9.710857828434312	0.5298299069213904	3.5241370918997177	-2.965048865330462	-0.19318851615858945	0.025487256371814093	-1.158920539730135	-0.017991004497751123	
1.7375793637163416E12	-0.2721414605527399	9.783132530120483	0.7081219588884485	-0.3463312177217705	9.70365926814637	0.48630684451808687	3.540479882148415	-3.047871459334106	-0.29607397288133663	0.020989505247376312	-1.1484257871064467	-0.019490254872563718	
1.737579363721326E12	-0.30852336453101675	9.710843373493976	0.7318545253908344	-0.3463312177217705	9.70365926814637	0.48630684451808687	3.446559088227225	-2.965048865330462	-0.09235598964435467	0.020989505247376312	-1.1484257871064467	-0.019490254872563718	
1.7375793637263103E12	-0.29587402705512583	9.686746987951807	0.6717400549101716	-0.32975158726711273	9.696460707858428	0.46563940954501354	3.6897484493546053	-2.6668875269173427	0.09100498796978354	0.01649175412293853	-1.1469265367316341	-0.01649175412293853	
1.7375793637312947E12	-0.3094871235767989	9.72289156626506	0.8282304299690513	-0.3259638569958148	9.696460707858428	0.5071997781972075	3.641934663738965	-2.865661752526089	0.2782028450927976	0.01649175412293853	-1.1469265367316341	-0.01649175412293853	
1.737579363736279E12	-0.33321969007918484	9.710843373493976	0.7918485259907744	-0.32596241757164207	9.689262147570485	0.5071278069885699	3.8723454962175197	-3.0313069405333772	0.20802311944252108	0.025487256371814093	-1.1514242878560719	-0.020989505247376312	
1.7375793637412634E12	-0.3700834735803528	9.734939759036145	0.8637690447822688	-0.3502469884779629	9.665266946610677	0.5666219412191589	4.1046507427566565	-3.1306940533377503	-0.05159801226592901	0.025487256371814093	-1.1514242878560719	-0.020989505247376312	
1.7375793637462478E12	-0.3458690275550758	9.602409638554217	0.8519629964714371	-0.3502469884779629	9.665266946610677	0.5666219412191589	4.913200707812892	-3.1141295345370215	0.257264593902302	0.02848575712143928	-1.1559220389805096	-0.013493253373313342	
1.737579363751232E12	-0.39417744972490704	9.66265060240964	0.8635281050208232	-0.3697828416432989	9.679664067186561	0.6196270706176011	5.620172843233667	-3.5116779857545137	0.004155186587353477	0.02848575712143928	-1.1559220389805096	-0.013493253373313342	
1.7375793637562163E12	-0.38200999177190714	9.759036144578314	0.8516015868292689	-0.3697828416432989	9.679664067186561	0.6196270706176011	5.740778666192483	-3.7104522113632594	0.1947214358818567	0.022488755622188904	-1.1499250374812593	-0.020989505247376312	
1.7375793637612007E12	-0.40646537755862966	9.843373493975903	0.8875016112846547	-0.388435566849469	9.660467906418715	0.6284758020577456	6.217311815083553	-3.6607586549610733	0.014607159332285596	0.022488755622188904	-1.1499250374812593	-0.020989505247376312	
1.737579363766185E12	-0.36996300369963003	9.66265060240964	0.8517220567099917	-0.388435566849469	9.660467906418715	0.6284758020577456	5.893824468675246	-3.0810004969355638	0.20407686907578887	0.01649175412293853	-1.154422788605697	-0.03298350824587706	
1.7375793637711694E12	-0.45356910092123315	9.74698795180723	0.7785968391112695	-0.4109812308967402	9.70605878824235	0.6010245933358552	6.2301935183294175	-2.7662746397217157	0.2578304028928756	0.01649175412293853	-1.154422788605697	-0.03298350824587706	
1.7375793637761538E12	-0.4059834980357386	9.686746987951807	0.8393136589955462	-0.4109812308967402	9.70605878824235	0.6010245933358552	6.108559090869984	-2.5178068577107835	0.1701246036600666	0.025487256371814093	-1.1574212893553224	-0.019490254872563718	
1.7375793637811382E12	-0.3821304616526299	9.74698795180723	0.863648574901546	-0.39477349429942155	9.713257348530293	0.5989518512297367	6.308890052134318	-2.252774556899122	0.045144863137875364	0.025487256371814093	-1.1574212893553224	-0.019490254872563718	
1.7375793637861226E12	-0.42995700429957	9.807228915662652	0.8270257311618235	-0.39477349429942155	9.713257348530293	0.5989518512297367	6.185913023137555	-1.739274474076528	0.0916992176380309	0.022488755622188904	-1.143928035982009	-0.010494752623688156	
1.7375793637911067E12	-0.33454485876713536	9.807228915662652	0.9243653947858226	-0.37385740914055127	9.730053989202158	0.5924085632631305	5.927509338617821	-1.5405002484677819	-0.10162298888769068	0.022488755622188904	-1.143928035982009	-0.010494752623688156	
1.737579363796091E12	-0.3220159911719671	9.807228915662652	0.8762979123774369	-0.37385740914055127	9.730053989202158	0.5924085632631305	5.512362605246607	-1.5570647672685107	0.06542400826433714	0.0239880059970015	-1.1559220389805096	-0.008995502248875561	
1.7375793638010754E12	-0.3094871235767989	9.686746987951807	0.8282304299690513	-0.3223678313498775	9.73245350929814	0.5583453781174297	5.236032401212992	-1.523935729667053	0.13336018497945418	0.0239880059970015	-1.1559220389805096	-0.008995502248875561	
1.7375793638060598E12	-0.24864983381179953	9.807228915662652	0.7685978390112795	-0.3223678313498775	9.73245350929814	0.5583453781174297	4.6590416089395275	-1.4908066920655954	-0.3605161772605139	0.014992503748125937	-1.143928035982009	-0.01649175412293853	
1.7375793638110442E12	-0.23696425538169075	9.759036144578314	0.8048592731088337	-0.2875900271374854	9.710857828434312	0.5515567841260018	4.249322084936304	-1.6730163988736126	-0.7361901169075322	0.014992503748125937	-1.143928035982009	-0.01649175412293853	
1.7375793638160286E12	-0.2246763275479681	9.819277108433736	0.7808857668450022	-0.2875900271374854	9.710857828434312	0.5515567841260018	4.232942860033175	-1.225774391253934	-0.6296611947417133	0.01649175412293853	-1.158920539730135	-0.020989505247376312	
1.737579363821013E12	-0.272623340075631	9.807228915662652	0.756309911177557	-0.28786438935394265	9.698860227954409	0.5652748949488652	4.4312745765192325	-1.4411131356634088	-0.5547164574363123	0.01649175412293853	-1.158920539730135	-0.020989505247376312	
1.7375793638259973E12	-0.2245558576672453	9.710843373493976	0.7688387787727251	-0.28786438935394265	9.698860227954409	0.5652748949488652	4.432469288201814	-1.6895809176743415	-0.6741876256944096	0.019490254872563718	-1.1484257871064467	-0.01649175412293853	
1.7375793638309817E12	-0.18829442356969123	9.686746987951807	0.7571532003426164	-0.29146377365628306	9.679664067186561	0.5142972278487976	4.523619921778522	-1.8552261056816297	-0.6008895744831736	0.019490254872563718	-1.1484257871064467	-0.01649175412293853	
1.7375793638359658E12	-0.3076800753659574	9.843373493975903	0.6475256088848946	-0.29146377365628306	9.679664067186561	0.5142972278487976	4.758823345069018	-1.6895809176743415	-1.1503283813275789	0.0239880059970015	-1.1559220389805096	-0.019490254872563718	
1.7375793638409502E12	-0.29575355717440305	9.734939759036145	0.6596930668378945	-0.2983422688021712	9.667666466706658	0.5118016618175686	4.132587896131448	-2.1699519628954778	-1.313919781598091	0.0239880059970015	-1.1559220389805096	-0.019490254872563718	
1.7375793638459346E12	-0.212629339475691	9.674698795180724	0.781006236725725	-0.2983422688021712	9.667666466706658	0.5118016618175686	4.5621846618114335	-2.3190326321020374	-1.3945764414802866	0.020989505247376312	-1.1604197901049476	-0.01649175412293853	
1.737579363850919E12	-0.30900524405390783	9.63855421686747	0.7800424776799428	-0.3614580998636027	9.61007798440312	0.5498103049584286	4.31575497284483	-2.3852907073049527	-1.2539046351720984	0.020989505247376312	-1.1604197901049476	-0.01649175412293853	
1.7375793638559033E12	-0.3586388349116896	9.626506024096386	0.924124455024377	-0.3614580998636027	9.61007798440312	0.5498103049584286	4.4824313694547655	-2.5012423389100547	-1.0762150465484914	0.0239880059970015	-1.1514242878560719	-0.020989505247376312	
1.7375793638608877E12	-0.36996300369963003	9.650602409638555	0.8517220567099917	-0.3837113846220172	9.590881823635272	0.6232135729022433	4.805122958487027	-2.4349842637071393	-1.1861090186874566	0.0239880059970015	-1.1514242878560719	-0.020989505247376312	
1.737579363865872E12	-0.3700834735803528	9.66265060240964	0.8637690447822688	-0.3837113846220172	9.590881823635272	0.6232135729022433	5.203474951442018	-2.2030810004969354	-1.2050755423641646	0.014992503748125937	-1.158920539730135	-0.0239880059970015	
1.7375793638708564E12	-0.3700834735803528	9.674698795180724	0.8637690447822688	-0.39308819237374465	9.602879424115176	0.6301601960544386	5.543049550401639	-1.7724035116779857	-1.4718769390919266	0.014992503748125937	-1.158920539730135	-0.0239880059970015	
1.7375793638758406E12	-0.5382594270693413	9.674698795180724	0.8138945141630415	-0.39308819237374465	9.602879424115176	0.6301601960544386	5.2369650650351085	-1.639887361272155	-1.4912997653791538	0.014992503748125937	-1.1559220389805096	-0.019490254872563718	
1.737579363880825E12	-0.3827328110562438	9.626506024096386	0.9238835152629316	-0.3987281948108743	9.638872225554888	0.6812134356938301	5.088098764376766	-1.6564518800728838	-1.9186053810150214	0.014992503748125937	-1.1559220389805096	-0.019490254872563718	
1.7375793638858093E12	-0.3705653531032439	9.734939759036145	0.9119569970713772	-0.3987281948108743	9.638872225554888	0.6812134356938301	4.803378699837764	-2.1036938876925624	-2.5430767219081063	0.031484257871064465	-1.1454272863568216	-0.017991004497751123	
1.7375793638907937E12	-0.33442438888641257	9.783132530120483	0.9123184067135455	-0.41273261276528694	9.698860227954409	0.6885936867631947	4.3644015599268595	-2.7662746397217157	-3.0557762070810846	0.031484257871064465	-1.1454272863568216	-0.017991004497751123	
1.737579363895778E12	-0.40670631732007523	9.698795180722891	0.9115955874292089	-0.41273261276528694	9.698860227954409	0.6885936867631947	4.165689106461482	-3.1306940533377503	-3.0926472464544617	0.017991004497751123	-1.1604197901049476	-0.014992503748125937	
1.7375793639007625E12	-0.43031841394173836	9.795180722891567	0.8631666953786549	-0.4343590979464773	9.76124775044991	0.6151835347372605	4.227072209740026	-3.064435978134835	-3.1053833017208166	0.017991004497751123	-1.1604197901049476	-0.014992503748125937	
1.7375793639057468E12	-0.4664593781585697	9.819277108433736	0.8628052857364866	-0.4343590979464773	9.76124775044991	0.6151835347372605	3.643030731937646	-2.716581083319529	-2.894191111069387	0.025487256371814093	-1.158920539730135	-0.026986506746626684	
1.7375793639107312E12	-0.39441838948635255	9.795180722891567	0.8876220811653774	-0.425633344349122	9.775644871025793	0.6407896193036757	3.427633337135707	-2.5012423389100547	-2.7939615849336463	0.025487256371814093	-1.158920539730135	-0.026986506746626684	
1.7375793639157153E12	-0.35936165419602617	9.843373493975903	0.9964063834580397	-0.425633344349122	9.775644871025793	0.6407896193036757	3.095480223960385	-2.56750041411297	-3.2693087666357403	0.029985007496251874	-1.1574212893553224	-0.017991004497751123	
1.7375793639206997E12	-0.39453885936707533	9.831325301204819	0.8996690692376546	-0.3909079045176027	9.785242951409717	0.6366192443558878	3.4159849314638806	-2.56750041411297	-3.1605145858979857	0.029985007496251874	-1.1574212893553224	-0.017991004497751123	
1.737579363925684E12	-0.37020394346107555	9.783132530120483	0.8758160328545459	-0.3909079045176027	9.785242951409717	0.6366192443558878	3.695841306322279	-2.7662746397217157	-3.581067845091599	0.017991004497751123	-1.1574212893553224	-0.01649175412293853	
1.7375793639306685E12	-0.39369557020201595	9.879518072289157	0.8153401527317148	-0.42531237544848294	9.785242951409717	0.6247411742717232	4.2491346768249	-3.3129037601457676	-3.7802364420611565	0.017991004497751123	-1.1574212893553224	-0.01649175412293853	
1.7375793639356528E12	-0.4177895463465702	9.807228915662652	0.8150992129702692	-0.42531237544848294	9.785242951409717	0.6247411742717232	4.80048394964726	-3.4288553917508695	-3.7849952710047154	0.022488755622188904	-1.1529235382308844	-0.020989505247376312	
1.7375793639406372E12	-0.47706072766217356	9.855421686746988	0.7181209589884385	-0.4863644922857652	9.787642471505698	0.5595641062051175	5.458884632851437	-3.760145767765446	-3.7751401611007775	0.022488755622188904	-1.1529235382308844	-0.020989505247376312	
1.7375793639456216E12	-0.4888667759730051	9.734939759036145	0.6939065129631615	-0.4863644922857652	9.787642471505698	0.5595641062051175	5.520123158516544	-3.7104522113632594	-3.7734184550234535	0.01649175412293853	-1.1469265367316341	-0.0239880059970015	
1.737579363950606E12	-0.476819787900728	9.674698795180724	0.6940269828438843	-0.4982384373934282	9.804439112177564	0.46042071493699943	5.397923669568612	-3.6607586549610733	-3.8046181054063	0.01649175412293853	-1.1469265367316341	-0.0239880059970015	
1.7375793639555903E12	-0.572593343075331	9.819277108433736	0.6328282834367166	-0.4982384373934282	9.804439112177564	0.46042071493699943	4.891657768913152	-3.8264038429683613	-3.7140157887117975	0.02848575712143928	-1.158920539730135	-0.0239880059970015	
1.7375793639605745E12	-0.48826442656939123	9.795180722891567	0.633671572601776	-0.5176294567918543	9.773245350929813	0.3907107148814027	4.736079621572446	-3.99204903097565	-3.4701367361114506	0.02848575712143928	-1.158920539730135	-0.0239880059970015	
1.7375793639655588E12	-0.5489812464536679	9.74698795180723	0.6812571754872705	-0.5176294567918543	9.773245350929813	0.3907107148814027	4.81394015598919	-3.8926619181712767	-3.599222337050666	0.03298350824587706	-1.143928035982009	-0.01649175412293853	
1.7375793639705432E12	-0.5607872947644994	9.72289156626506	0.6570427294619936	-0.5753421573015258	9.710857828434312	0.389509712651351	5.1950686440496145	-3.5448070233559714	-3.4272319394178004	0.03298350824587706	-1.143928035982009	-0.01649175412293853	
1.7375793639755276E12	-0.5727138129560538	9.710843373493976	0.6448752715089937	-0.5753421573015258	9.710857828434312	0.389509712651351	5.410309868393525	-3.6607586549610733	-3.5118444197507026	0.020989505247376312	-1.1514242878560719	-0.019490254872563718	
1.737579363980512E12	-0.5970487288620535	9.66265060240964	0.6687283078921024	-0.5969885955494619	9.655668866226755	0.43257065507124814	6.17312147416257	-4.124565181381481	-3.223326589304382	0.020989505247376312	-1.1514242878560719	-0.019490254872563718	
1.7375793639854963E12	-0.6211427050066077	9.674698795180724	0.6684873681306568	-0.5969885955494619	9.655668866226755	0.43257065507124814	6.786435472958533	-4.141129700182209	-3.2989837430202	0.019490254872563718	-1.1514242878560719	-0.01649175412293853	
1.7375793639904807E12	-0.6089752470536078	9.698795180722891	0.6565608499391025	-0.6205755056172287	9.602879424115176	0.4571817473741375	6.9413486964550115	-4.638065264204075	-3.476370411197948	0.019490254872563718	-1.1514242878560719	-0.01649175412293853	
1.737579363995465E12	-0.5970487288620535	9.674698795180724	0.6687283078921024	-0.6205755056172287	9.602879424115176	0.4571817473741375	7.382585587203544	-4.638065264204075	-3.1896460097878334	0.03298350824587706	-1.154422788605697	-0.019490254872563718	
1.7375793640004492E12	-0.5728342828367765	9.626506024096386	0.6569222595812708	-0.6170748767461541	9.641271745650869	0.3976237449289549	7.611120222948733	-5.052178234222295	-3.072206062101472	0.03298350824587706	-1.154422788605697	-0.019490254872563718	
1.7375793640054336E12	-0.6081319578885485	9.734939759036145	0.5722319334331627	-0.6170748767461541	9.641271745650869	0.3976237449289549	7.928240024999569	-4.836839489812821	-2.6249213360977124	0.022488755622188904	-1.154422788605697	-0.0239880059970015	
1.737579364010418E12	-0.5964463794584397	9.66265060240964	0.6084933675307168	-0.6144886286605845	9.638872225554888	0.3837847817590238	8.094311613225262	-4.754016895809176	-2.386750909049883	0.022488755622188904	-1.154422788605697	-0.0239880059970015	
1.7375793640154023E12	-0.49995000499950004	9.566265060240964	0.5974101385042219	-0.6144886286605845	9.638872225554888	0.3837847817590238	8.16979597324209	-4.2902103693887685	-2.2782190699976574	0.029985007496251874	-1.158920539730135	-0.0239880059970015	
1.7375793640203867E12	-0.6319849942716571	9.674698795180724	0.5478970175271629	-0.5816085280483023	9.636472705458907	0.35640792666453286	8.216285374647615	-4.008613549776379	-2.3329785061092427	0.029985007496251874	-1.158920539730135	-0.0239880059970015	
1.737579364025371E12	-0.4644113901862826	9.614457831325302	0.6580064885077758	-0.5816085280483023	9.636472705458907	0.35640792666453286	8.032365599695241	-3.577936060957429	-2.317723828636146	0.020989505247376312	-1.1604197901049476	-0.017991004497751123	
1.7375793640303555E12	-0.6092161868150534	9.698795180722891	0.6806548260836567	-0.6101930229438629	9.636472705458907	0.3999513781400294	8.38202474850938	-3.5282425045552426	-2.0615866426686074	0.020989505247376312	-1.1604197901049476	-0.017991004497751123	
1.7375793640353398E12	-0.6222269339331127	9.710843373493976	0.7769102607811508	-0.6101930229438629	9.636472705458907	0.3999513781400294	8.993844943671956	-3.2300811661421234	-1.9878634330454048	0.025487256371814093	-1.1514242878560719	-0.020989505247376312	
1.7375793640403242E12	-0.693665573201716	9.698795180722891	0.6918585249908744	-0.6524970178001123	9.655668866226755	0.436629180998684	9.604089690172627	-3.263210203743581	-1.7565953572320816	0.025487256371814093	-1.1514242878560719	-0.020989505247376312	
1.7375793640453083E12	-0.6448752715089937	9.771084337349398	0.6321054641523799	-0.6524970178001123	9.655668866226755	0.436629180998684	10.233264718877956	-2.931919827729004	-1.8869619337373789	0.025487256371814093	-1.1559220389805096	-0.019490254872563718	
1.7375793640502927E12	-0.6570427294619936	9.72289156626506	0.6440319823439342	-0.6979857348816418	9.658068386322734	0.40159621290426106	10.051588133556653	-2.9981779029319195	-2.0960262193712036	0.025487256371814093	-1.1559220389805096	-0.019490254872563718	
1.737579364055277E12	-0.6933041635595476	9.590361445783133	0.6557175607740431	-0.6979857348816418	9.658068386322734	0.40159621290426106	10.295114677409927	-3.147258572138479	-1.946383514346654	0.022488755622188904	-1.1499250374812593	-0.017991004497751123	
1.7375793640602615E12	-0.6929427539173794	9.807228915662652	0.6195765965572118	-0.7025119749789845	9.660467906418715	0.396961335554305	10.293158986885077	-2.6006294517144277	-1.750814461861496	0.035982008995502246	-1.1514242878560719	-0.026986506746626684	
1.7375793640652458E12	-0.681016235725825	9.74698795180723	0.6317440545102117	-0.7025119749789845	9.660467906418715	0.396961335554305	10.031704267397267	-2.6006294517144277	-1.6390331715796127	0.035982008995502246	-1.1514242878560719	-0.026986506746626684	
1.7375793640702302E12	-0.645236681151162	9.710843373493976	0.6682464283692112	-0.716875811781239	9.67246550689862	0.4223125290157644	9.952280372279581	-1.6895809176743415	-1.3536115005464215	0.029985007496251874	-1.154422788605697	-0.029985007496251874	
1.7375793640752146E12	-0.6455980907933303	9.566265060240964	0.7043873925860425	-0.716875811781239	9.67246550689862	0.4223125290157644	10.178144710036017	-1.7227099552757992	-0.9691417539844785	0.029985007496251874	-1.154422788605697	-0.029985007496251874	
1.737579364080199E12	-0.7287223084920423	9.771084337349398	0.5830742226982121	-0.7171525730379843	9.67246550689862	0.4361505918530239	9.867145080929005	-0.6957097896306111	-0.49705020622360857	0.01649175412293853	-1.1454272863568216	-0.019490254872563718	
1.737579364085183E12	-0.8366633216196453	9.734939759036145	0.5338020414825987	-0.7171525730379843	9.67246550689862	0.4361505918530239	9.815110885588917	0.3644194136160344	0.11218862334420902	0.01649175412293853	-1.1454272863568216	-0.019490254872563718	
1.7375793640901675E12	-0.6211427050066077	9.686746987951807	0.6684873681306568	-0.689215293832335	9.679664067186561	0.42496792487310403	9.772553728913703	1.7061454364750703	-0.2262764135756237	0.031484257871064465	-1.1499250374812593	-0.017991004497751123	
1.7375793640951519E12	-0.6569222595812708	9.686746987951807	0.6319849942716571	-0.689215293832335	9.679664067186561	0.42496792487310403	9.494415724209988	2.269339075699851	0.02243983014978393	0.031484257871064465	-1.1499250374812593	-0.017991004497751123	
1.7375793641001362E12	-0.6688487777728251	9.698795180722891	0.6198175363186573	-0.6914786537850351	9.682063587282542	0.42266248139956564	9.159958144939328	3.3129037601457676	-0.22246074201840427	0.022488755622188904	-1.1499250374812593	-0.020989505247376312	
1.7375793641051206E12	-0.6814981152487161	9.698795180722891	0.6799320067993201	-0.6914786537850351	9.682063587282542	0.42266248139956564	8.804948463423742	4.124565181381481	0.05645534215878523	0.022488755622188904	-1.1499250374812593	-0.020989505247376312	
1.737579364110105E12	-0.7294451277763789	9.686746987951807	0.6553561511318747	-0.7125821252967477	9.679664067186561	0.43857508700828685	8.243486486695714	4.903097565015736	-0.45890900647785604	0.025487256371814093	-1.1574212893553224	-0.017991004497751123	
1.7375793641150894E12	-0.7531776942787649	9.698795180722891	0.6189742471535978	-0.7125821252967477	9.679664067186561	0.43857508700828685	7.963000461643232	5.549113798244161	0.02460927212389194	0.025487256371814093	-1.1574212893553224	-0.017991004497751123	
1.7375793641200737E12	-0.776789790900428	9.674698795180724	0.5705453551030439	-0.7735857162176177	9.670065986802639	0.3709717231210752	7.348420537976483	6.526420407487162	0.22685891291835622	0.02848575712143928	-1.158920539730135	-0.029985007496251874	
1.7375793641250579E12	-0.7651042124703192	9.614457831325302	0.606806789200598	-0.7735857162176177	9.670065986802639	0.3709717231210752	7.0703906762317725	7.470597979128706	0.46476086074315665	0.02848575712143928	-1.158920539730135	-0.029985007496251874	
1.7375793641300422E12	-0.800522357402814	9.674698795180724	0.534163451124767	-0.7978767888029561	9.665266946610677	0.3153175001939942	6.609577291877942	7.719065761139638	0.6042922517157389	0.0239880059970015	-1.1559220389805096	-0.0239880059970015	
1.7375793641350266E12	-0.801004236925705	9.650602409638555	0.5823514034138755	-0.7978767888029561	9.665266946610677	0.3153175001939942	6.352559763148961	8.679807851581911	0.27235446611461817	0.0239880059970015	-1.1559220389805096	-0.0239880059970015	
1.737579364140011E12	-0.8128102852365365	9.674698795180724	0.5581369573885985	-0.7959324785186647	9.64367126574685	0.33357542708796817	6.195267053011255	9.574291866821268	0.6876897984149962	0.010494752623688156	-1.1559220389805096	-0.014992503748125937	
1.7375793641449954E12	-0.8123284057136455	9.674698795180724	0.50994900509949	-0.7959324785186647	9.64367126574685	0.33357542708796817	5.994059184458735	10.766937220473745	0.90036026775584	0.010494752623688156	-1.1559220389805096	-0.014992503748125937	
1.7375793641499797E12	-0.7643813931859826	9.626506024096386	0.5345248607669354	-0.7812015459396469	9.641271745650869	0.2898694447883464	5.710891268572908	11.909889017724034	1.6520676296923287	0.026986506746626684	-1.143928035982009	-0.025487256371814093	
1.737579364154964E12	-0.7037850431824287	9.650602409638555	0.4989862459537179	-0.7812015459396469	9.641271745650869	0.2898694447883464	5.39980055282982	13.847937717409309	2.133267841060878	0.026986506746626684	-1.143928035982009	-0.025487256371814093	
1.7375793641599485E12	-0.7279994892077057	9.602409638554217	0.5107922942645494	-0.7442449585978816	9.578884223155368	0.28961513543680906	5.031594010027372	15.454696041080005	2.2004764857773558	0.01649175412293853	-1.1514242878560719	-0.019490254872563718	
1.7375793641649329E12	-0.642586343775261	9.614457831325302	0.40321269077911487	-0.7442449585978816	9.578884223155368	0.28961513543680906	4.9878272365836755	17.193970515156533	1.9829731257059682	0.01649175412293853	-1.1514242878560719	-0.019490254872563718	
1.737579364169917E12	-0.6548742716089837	9.409638554216867	0.4271861970429463	-0.6919121422194175	9.516496700659868	0.2133900209015902	4.142064023071052	17.724035116779856	0.8012546607355528	0.017991004497751123	-1.1484257871064467	-0.022488755622188904	
1.7375793641749014E12	-0.6906538261836467	9.457831325301205	0.3906838231839467	-0.6919121422194175	9.516496700659868	0.2133900209015902	3.4766795086001125	18.138148086798076	-0.04161089063911594	0.017991004497751123	-1.1484257871064467	-0.022488755622188904	
1.7375793641798857E12	-0.7388417784727551	9.44578313253012	0.3902019436610556	-0.7050594071523698	9.442111577684463	0.17791262089793916	2.8855609616578675	18.038760973993703	-0.6541053541481574	0.022488755622188904	-1.154422788605697	-0.025487256371814093	
1.73757936418487E12	-0.7505273569028639	9.421686746987952	0.3539405095635015	-0.7050594071523698	9.442111577684463	0.17791262089793916	2.8277288710139477	17.558389928772566	-0.996470562344211	0.022488755622188904	-1.154422788605697	-0.025487256371814093	
1.7375793641898545E12	-0.7383598989498641	9.421686746987952	0.34201399137194716	-0.7410276579651659	9.40611877624475	0.12875010380101962	2.397299418187116	17.26022859035945	-0.8325451877774195	0.01649175412293853	-1.154422788605697	-0.026986506746626684	
1.7375793641948389E12	-0.7024598744944782	9.3855421686747	0.3664693771586697	-0.7410276579651659	9.40611877624475	0.12875010380101962	1.708009362311055	17.343051184363095	-0.8162501667869944	0.01649175412293853	-1.154422788605697	-0.026986506746626684	
1.7375793641998232E12	-0.6782454284692012	9.44578313253012	0.3546633288478381	-0.7037539401872224	9.37252549490102	0.11263927264056357	1.1442722345431247	17.475567334768925	-1.1040994114334388	0.020989505247376312	-1.1514242878560719	-0.031484257871064465	
1.7375793642048076E12	-0.6300574761800928	9.397590361445783	0.35514520837072916	-0.7037539401872224	9.37252549490102	0.11263927264056357	0.7676223402579284	17.67434156037767	-1.7239491865891632	0.020989505247376312	-1.1514242878560719	-0.031484257871064465	
1.7375793642097917E12	-0.5819899937717071	9.361445783132531	0.3676740759658974	-0.6408586675372026	9.379724055188962	0.08565855007028923	0.4796470427937999	17.608083485174756	-2.022897234969574	0.020989505247376312	-1.1649175412293853	-0.026986506746626684	
1.7375793642147761E12	-0.5700634755801528	9.325301204819278	0.37984153391889725	-0.6408586675372026	9.379724055188962	0.08565855007028923	0.11643016916135014	17.574954447573298	-2.454655507252931	0.020989505247376312	-1.1649175412293853	-0.026986506746626684	
1.7375793642197605E12	-0.5454876199127076	9.421686746987952	0.3318945213912344	-0.5855799200510581	9.374925014997	0.09308376236814453	-0.2959414355034138	17.591518966374025	-2.5651213807459032	0.029985007496251874	-1.1664167916041979	-0.026986506746626684	
1.7375793642247449E12	-0.5458490295548758	9.361445783132531	0.3680354856080657	-0.5855799200510581	9.374925014997	0.09308376236814453	-0.3641174210569176	17.160841477555074	-3.404490666130595	0.029985007496251874	-1.1664167916041979	-0.026986506746626684	
1.7375793642297292E12	-0.5577755477464301	9.433734939759036	0.3558680276550658	-0.5558756409447504	9.324535092981403	0.10902454146384981	-0.44884585829450735	15.984760642703328	-4.120008351253702	0.013493253373313342	-1.1484257871064467	-0.019490254872563718	
1.7375793642347136E12	-0.5093466556958762	9.301204819277109	0.3322559310334027	-0.5558756409447504	9.324535092981403	0.10902454146384981	-0.3221914563768992	15.25592181547126	-4.534299997838409	0.013493253373313342	-1.1484257871064467	-0.019490254872563718	
1.737579364239698E12	-0.5577755477464301	9.313253012048193	0.3558680276550658	-0.551623763063865	9.310137972405519	0.12737752963666915	-0.011286721263646285	13.715421567003478	-4.996902146223425	0.022488755622188904	-1.1424287856071964	-0.02848575712143928	
1.7375793642446824E12	-0.6306598255837067	9.481927710843374	0.4153801487321147	-0.551623763063865	9.310137972405519	0.12737752963666915	0.35731877584533744	12.506211694550272	-5.104006221593463	0.022488755622188904	-1.1424287856071964	-0.02848575712143928	
1.7375793642496667E12	-0.6076500783656574	9.349397590361447	0.5240439811440543	-0.5992838019796349	9.329334133173365	0.20091065325426719	1.1212003891313966	11.578598641709458	-4.92248914284869	0.020989505247376312	-1.1454272863568216	-0.01649175412293853	
1.737579364254651E12	-0.6311417051065977	9.409638554216867	0.46356810102122314	-0.5992838019796349	9.329334133173365	0.20091065325426719	1.7837303954239443	10.899453370879575	-5.325566341781876	0.020989505247376312	-1.1454272863568216	-0.01649175412293853	
1.7375793642596353E12	-0.6434296329403204	9.361445783132531	0.48754160728505463	-0.6258874558759318	9.355728854229154	0.26088549587511245	2.8541600370886515	9.590856385621997	-5.170980737961609	0.01199400299850075	-1.154422788605697	-0.019490254872563718	
1.7375793642646196E12	-0.7390827182342007	9.493975903614459	0.4142959198056098	-0.6258874558759318	9.355728854229154	0.26088549587511245	3.853258322630454	8.69637237038264	-5.540227362585995	0.01199400299850075	-1.154422788605697	-0.019490254872563718	
1.737579364269604E12	-0.7272766699233691	9.506024096385543	0.43851036583088676	-0.6828457475910621	9.442111577684463	0.2219640539180044	4.299619523438486	7.172436640715587	-5.765933967125829	0.019490254872563718	-1.154422788605697	-0.0239880059970015	
1.7375793642745884E12	-0.751491115948646	9.493975903614459	0.45031641414171836	-0.6828457475910621	9.442111577684463	0.2219640539180044	4.50072752963528	5.515984760642703	-5.968618200894037	0.019490254872563718	-1.154422788605697	-0.0239880059970015	
1.7375793642795728E12	-0.7984743694305269	9.518072289156628	0.3293646538960562	-0.7682398619703827	9.46370725854829	0.10367901075932001	4.58928189553638	3.5282425045552426	-5.63569338212197	0.022488755622188904	-1.1499250374812593	-0.020989505247376312	
1.7375793642845571E12	-0.8696720689376846	9.566265060240964	0.22021894196122554	-0.7682398619703827	9.46370725854829	0.10367901075932001	4.706771599705169	2.3190326321020374	-5.133515253824703	0.022488755622188904	-1.1499250374812593	-0.020989505247376312	
1.7375793642895415E12	-0.9427972865364066	9.518072289156628	0.3038250391828287	-0.9050274619236681	9.46370725854829	0.014652541910882888	4.789510233772048	1.4576776544641377	-4.219017251630583	0.013493253373313342	-1.158920539730135	-0.019490254872563718	
1.7375793642945256E12	-1.0143563956857327	9.44578313253012	0.2308202914648294	-0.9050274619236681	9.46370725854829	0.014652541910882888	4.857848519149835	0.2650323008116614	-3.3958779486741197	0.013493253373313342	-1.158920539730135	-0.019490254872563718	
1.73757936429951E12	-1.110370890621781	9.397590361445783	0.19371556820221592	-1.0592043443553707	9.367726454709057	-0.013223890776509276	5.194981250451677	-0.1822097068080172	-1.8870990114769197	0.017991004497751123	-1.1514242878560719	-0.0239880059970015	
1.7375793643044944E12	-1.1822914094132755	9.349397590361447	0.15685178470104796	-1.0592043443553707	9.367726454709057	-0.013223890776509276	5.661671528784453	-1.1429517972502898	-1.0829262321971647	0.017991004497751123	-1.1514242878560719	-0.0239880059970015	
1.7375793643094788E12	-1.1938565179626615	9.19277108433735	0.10854336253121676	-1.1544956822439356	9.235752849430114	-0.09854152290714632	5.978195964058612	-2.2859035945005797	-0.5761048285257613	0.043478260869565216	-1.1304347826086956	-0.03298350824587706	
1.7375793643144631E12	-1.2413216509674334	9.240963855421688	0.03577955457466302	-1.1544956822439356	9.235752849430114	-0.09854152290714632	6.287176360619932	-2.56750041411297	0.6851204464294669	0.043478260869565216	-1.1304347826086956	-0.03298350824587706	
1.7375793643194475E12	-1.3369747362613136	9.228915662650603	-0.03746613290478181	-1.2866018681894902	9.149370125974805	-0.19069180992503038	6.2880680586744795	-3.147258572138479	2.127344209121843	0.02848575712143928	-1.1574212893553224	-0.0239880059970015	
1.737579364324432E12	-1.4332301709588078	9.19277108433735	-0.05047688002284109	-1.2866018681894902	9.149370125974805	-0.19069180992503038	5.8819971441050365	-3.693887692562531	2.9182028942437355	0.02848575712143928	-1.1574212893553224	-0.0239880059970015	
1.7375793643294163E12	-1.3126398203553138	9.204819277108435	-0.06131916928789049	-1.3543931399281726	9.134973005398919	-0.2653314562472534	5.642850378356004	-3.9092264369720056	3.861975946941732	0.0239880059970015	-1.1529235382308844	-0.014992503748125937	
1.7375793643344004E12	-1.3250482180697594	9.301204819277109	-0.02529867495178193	-1.3543931399281726	9.134973005398919	-0.2653314562472534	5.654736104398	-4.754016895809176	4.20479691088912	0.0239880059970015	-1.1529235382308844	-0.014992503748125937	
1.7375793643393848E12	-1.2764988561384825	9.3855421686747	-0.06095775964572218	-1.3167868725536123	9.28374325134973	-0.2980697672385671	5.8091770091627115	-6.377339738280602	4.07464211588806	0.017991004497751123	-1.1469265367316341	-0.034482758620689655	
1.7375793643443691E12	-1.241442120848156	9.63855421686747	0.047826542646940126	-1.3167868725536123	9.28374325134973	-0.2980697672385671	6.150826539334412	-7.68593672353818	3.600347597952359	0.017991004497751123	-1.1469265367316341	-0.034482758620689655	
1.7375793643493535E12	-1.170485361102444	9.590361445783133	0.18106623072632494	-1.2085813031530035	9.502099580083982	-0.16562306405883326	6.30434035807489	-8.812324001987742	3.5629014053747636	0.035982008995502246	-1.1469265367316341	-0.01649175412293853	
1.737579364354338E12	-1.135187686050672	9.674698795180724	0.26575655687443306	-1.2085813031530035	9.502099580083982	-0.16562306405883326	6.702160411954499	-9.11048534040086	3.597128789236134	0.035982008995502246	-1.1469265367316341	-0.01649175412293853	
1.7375793643593223E12	-1.0638695166627916	9.783132530120483	0.36285528073698653	-1.1113112591311936	9.684463107378523	0.05170614362664862	7.292861787262993	-9.226436972005963	4.251340416120271	0.020989505247376312	-1.143928035982009	-0.031484257871064465	
1.7375793643643066E12	-0.9564103830580797	9.867469879518072	0.46031541424170835	-1.1113112591311936	9.684463107378523	0.05170614362664862	7.916333700338705	-8.895146595991386	4.691285402576624	0.020989505247376312	-1.143928035982009	-0.031484257871064465	
1.737579364369291E12	-0.8364223818581997	9.903614457831326	0.5097080653380445	-0.945651997579528	9.876424715056988	0.19830426696716216	8.136924296379776	-8.39821103196952	4.0717357525276014	0.022488755622188904	-1.1499250374812593	-0.0239880059970015	
1.7375793643742754E12	-0.800522357402814	9.975903614457831	0.534163451124767	-0.945651997579528	9.876424715056988	0.19830426696716216	7.208300447440108	-7.68593672353818	3.5191129895267887	0.022488755622188904	-1.1499250374812593	-0.0239880059970015	
1.7375793643792595E12	-0.7161934408968742	10.012048192771084	0.5350067402898264	-0.7975163450364029	9.938812237552488	0.29729531186633734	6.375309138093686	-6.625807520291535	2.5915976760831647	0.0239880059970015	-1.1499250374812593	-0.0239880059970015	
1.737579364384244E12	-0.7893186584955962	9.963855421686748	0.6186128375114296	-0.7975163450364029	9.938812237552488	0.29729531186633734	6.165880828459054	-6.145436475070399	2.094918685488215	0.0239880059970015	-1.1499250374812593	-0.0239880059970015	
1.7375793643892283E12	-0.8500354783798728	9.93975903614458	0.6661984403969241	-0.8110457954296925	9.94361127774445	0.3964006259880841	6.158122769384772	-5.6319363922478045	1.339331024769298	0.0239880059970015	-1.1499250374812593	-0.022488755622188904	
1.7375793643942126E12	-0.9342439250050898	9.855421686746988	0.6533081631595876	-0.8110457954296925	9.94361127774445	0.3964006259880841	6.244205515323827	-5.863839655458008	0.3880242715989054	0.0239880059970015	-1.1499250374812593	-0.022488755622188904	
1.737579364399197E12	-0.9819499977713072	9.903614457831326	0.6046383313475882	-0.9335980788736751	9.895620875824834	0.4039224194343329	6.524304674030732	-5.565678317044889	-0.05680737244542877	0.034482758620689655	-1.158920539730135	-0.029985007496251874	
1.7375793644041814E12	-1.0908547699446922	9.93975903614458	0.6517420547101916	-0.9335980788736751	9.895620875824834	0.4039224194343329	6.543141718362286	-5.731323505052178	-0.4091182374537894	0.034482758620689655	-1.158920539730135	-0.029985007496251874	
1.7375793644091658E12	-1.1514511199482462	9.855421686746988	0.687280669523409	-1.113551690087842	9.842831433713256	0.3946745736761619	6.490913376108627	-5.217823422229584	-1.3118582846758433	0.029985007496251874	-1.1499250374812593	-0.0239880059970015	
1.7375793644141501E12	-1.248308904049354	9.879518072289157	0.7345048627667353	-1.113551690087842	9.842831433713256	0.3946745736761619	6.402955042872119	-4.803710452211363	-1.704386369907175	0.029985007496251874	-1.1499250374812593	-0.0239880059970015	
1.7375793644191343E12	-1.296858265980631	9.93975903614458	0.7701639474606756	-1.2656753655321817	9.88602279544091	0.49508467383772636	5.999311090874553	-4.323339406990226	-2.6876175101198965	0.0239880059970015	-1.158920539730135	-0.031484257871064465	
1.7375793644241187E12	-1.393113700678125	10.084337349397591	0.7571532003426164	-1.2656753655321817	9.88602279544091	0.49508467383772636	5.983990890079761	-3.7932748053669036	-4.218384566934829	0.0239880059970015	-1.158920539730135	-0.031484257871064465	
1.737579364429103E12	-1.3696220739371845	10.180722891566266	0.8176290804654475	-1.3732676717718908	10.087582483503299	0.5629216948301169	5.422633858388972	-3.6276296173596156	-6.275636987442264	0.026986506746626684	-1.1604197901049476	-0.02848575712143928	
1.7375793644340874E12	-1.4179304961070158	10.301204819277109	0.8291941890148334	-1.3732676717718908	10.087582483503299	0.5629216948301169	4.609599284510797	-3.693887692562531	-7.667432279563623	0.026986506746626684	-1.1604197901049476	-0.02848575712143928	
1.7375793644390718E12	-1.477804026826233	10.289156626506024	0.7924508753943883	-1.4563789043993431	10.253149370125975	0.561439446295098	3.733805883403631	-3.2300811661421234	-8.908919121373778	0.0239880059970015	-1.1574212893553224	-0.02848575712143928	
1.7375793644440562E12	-1.4657570387539558	10.265060240963855	0.7925713452751111	-1.4563789043993431	10.253149370125975	0.561439446295098	2.430240078493141	-3.3129037601457676	-10.25218549096797	0.0239880059970015	-1.1574212893553224	-0.02848575712143928	
1.7375793644490405E12	-1.5496040757370046	10.204819277108435	0.7435401038209432	-1.556311982558052	10.253149370125975	0.5927353865631072	1.4773686513800293	-3.461984429352327	-11.442837572918695	0.025487256371814093	-1.1559220389805096	-0.020989505247376312	
1.737579364454025E12	-1.5864678592381725	10.156626506024097	0.8154606226124376	-1.556311982558052	10.253149370125975	0.5927353865631072	0.01694668629708651	-4.091436143780023	-12.414423606737746	0.025487256371814093	-1.1559220389805096	-0.020989505247376312	
1.7375793644590093E12	-1.5859859797152815	10.120481927710843	0.7672726703233291	-1.5924527456739053	10.157168566286742	0.5521984846190465	-0.7074132907600196	-4.422726519794599	-13.48531717208379	0.03298350824587706	-1.1559220389805096	-0.029985007496251874	
1.7375793644639934E12	-1.62200647405139	10.024096385542169	0.7548642726088837	-1.5924527456739053	10.157168566286742	0.5521984846190465	-1.1459947886057003	-4.654629783004803	-14.037580863779139	0.03298350824587706	-1.1559220389805096	-0.029985007496251874	
1.7375793644689778E12	-1.6221269439321129	9.963855421686748	0.7669112606811608	-1.6010041330385691	9.962807438512296	0.5178740884180592	-1.5066109213169434	-4.373032963392413	-14.729413228183123	0.0239880059970015	-1.143928035982009	-0.02848575712143928	
1.7375793644739622E12	-1.5259919791153413	9.771084337349398	0.7919689958714972	-1.6010041330385691	9.962807438512296	0.5178740884180592	-1.7457819194399014	-3.9092264369720056	-15.314610506239575	0.0239880059970015	-1.143928035982009	-0.02848575712143928	
1.7375793644789465E12	-1.574059461523727	9.698795180722891	0.779440128276329	-1.5623545668422056	9.751649670065985	0.548444277445156	-1.2070478852093447	-3.1969521285406657	-15.58923904414975	0.020989505247376312	-1.1454272863568216	-0.031484257871064465	
1.737579364483931E12	-1.5380389671876185	9.686746987951807	0.7918485259907744	-1.5623545668422056	9.751649670065985	0.548444277445156	-1.2831133728048623	-2.236210038098393	-15.639658125333057	0.020989505247376312	-1.1454272863568216	-0.031484257871064465	
1.7375793644889153E12	-1.4533486410395104	9.698795180722891	0.7565508509390024	-1.4812376098396298	9.626874625074985	0.5341668661154447	-0.8484746079818043	-1.623322842471426	-16.22451469952248	0.04047976011994003	-1.1499250374812593	-0.031484257871064465	
1.7375793644938997E12	-1.4032331706588377	9.578313253012048	0.5642809213054598	-1.4812376098396298	9.626874625074985	0.5341668661154447	-1.196579837702568	-1.126387278449561	-16.636043794827415	0.04047976011994003	-1.1499250374812593	-0.031484257871064465	
1.737579364498884E12	-1.3911861825865606	9.457831325301205	0.5644013911861826	-1.400036340187996	9.528494301139771	0.40020038122428137	-1.7288691557927391	-0.4803710452211363	-17.00588687095581	0.031484257871064465	-1.1559220389805096	-0.031484257871064465	
1.7375793645038682E12	-1.3914271223480061	9.373493975903616	0.5884953673307368	-1.400036340187996	9.528494301139771	0.40020038122428137	-2.7675573593072147	-0.1325161504058307	-17.271829153505177	0.031484257871064465	-1.1559220389805096	-0.031484257871064465	
1.7375793645088525E12	-1.4050402188696793	9.27710843373494	0.7449857423896165	-1.3749722115964667	9.358128374325133	0.4172018038418196	-3.8587587013761695	0.2153387444094749	-16.880638285047667	0.022488755622188904	-1.1484257871064467	-0.019490254872563718	
1.737579364513837E12	-1.2496340727373045	9.313253012048193	0.8670217315617835	-1.3749722115964667	9.358128374325133	0.4172018038418196	-3.726014546122458	0.5963226768262382	-14.841118128948686	0.022488755622188904	-1.1484257871064467	-0.019490254872563718	
1.7375793645188213E12	-0.589459126376519	9.325301204819278	1.1145873364470782	-0.8204107553472882	9.230953809238152	0.6337017396507887	-2.1623380371808194	-9.392082160013251	12.558459154529146	0.03298350824587706	-1.1559220389805096	-0.019490254872563718	
1.7375793645238057E12	-1.695252161530835	9.168674698795181	0.850517357902764	-0.8204107553472882	9.230953809238152	0.6337017396507887	0.27796401916018276	4.671194301805532	-12.482466234548133	0.03298350824587706	-1.1559220389805096	-0.019490254872563718	
1.73757936452879E12	-1.9471546821221493	9.132530120481928	0.7395645977570917	-1.7320817606430292	9.142171565686862	0.605242766562549	-2.874261496665922	9.773066092430014	-17.321170394663543	0.02848575712143928	-1.154422788605697	-0.031484257871064465	
1.7375793645337744E12	-1.7313931257476662	9.240963855421688	0.8501559482605956	-1.7320817606430292	9.142171565686862	0.605242766562549	-2.713477566424291	7.752194798741096	-13.491447032915449	0.02848575712143928	-1.154422788605697	-0.031484257871064465	
1.7375793645387588E12	-1.65983401659834	9.27710843373494	0.9231606959785948	-1.8098067213033326	9.156568686262746	0.5653938018871951	-1.492578630824103	6.079178399867484	-11.538461573026172	0.02848575712143928	-1.1484257871064467	-0.0239880059970015	
1.737579364543743E12	-1.6228497632164494	9.361445783132531	0.8391931891148234	-1.8098067213033326	9.156568686262746	0.5653938018871951	-2.3957078034826744	6.4435978134835175	-10.046371259695823	0.02848575712143928	-1.1484257871064467	-0.0239880059970015	
1.7375793645487273E12	-1.488887255852728	9.289156626506024	0.6959545009354486	-1.59151964941027	9.19496100779844	0.6210171125458195	-4.088491437526598	7.5037270167301635	-9.221300351474849	0.031484257871064465	-1.154422788605697	-0.026986506746626684	
1.7375793645537117E12	-1.3445643387468482	9.144578313253012	0.721494115648676	-1.59151964941027	9.19496100779844	0.6210171125458195	-5.879323418139887	7.950969024349842	-9.311149763346737	0.031484257871064465	-1.154422788605697	-0.026986506746626684	
1.737579364558696E12	-1.3569727364612936	9.228915662650603	0.7575146099847846	-1.4367679172767545	9.170965806838632	0.5046776190340272	-7.9620922560030545	8.464469107172436	-9.30379124502391	0.025487256371814093	-1.1484257871064467	-0.026986506746626684	
1.7375793645636804E12	-1.3932341705588478	9.265060240963855	0.7692001884148935	-1.4367679172767545	9.170965806838632	0.5046776190340272	-9.450807935518185	8.97796918999503	-8.977399403771068	0.025487256371814093	-1.1484257871064467	-0.026986506746626684	
1.7375793645686648E12	-0.4198375343188573	9.180722891566266	1.01989801019898	-0.7697625622147706	9.058188362327535	0.6417077874128924	-8.40222844100287	-2.352161669703495	25.52146584607571	0.02848575712143928	-1.1484257871064467	-0.0239880059970015	
1.7375793645736492E12	-1.431543592628689	8.963855421686748	0.9856845640737131	-0.7697625622147706	9.058188362327535	0.6417077874128924	-5.888202120745405	12.075534205731323	-3.8290987983537916	0.02848575712143928	-1.1484257871064467	-0.0239880059970015	
1.7375793645786335E12	-1.852103946231883	8.927710843373495	0.8730452255979221	-1.4164947462973934	8.969406118776243	0.7612269222599674	-8.644791037659811	15.752857379493125	-9.946623645963676	0.02848575712143928	-1.1514242878560719	-0.020989505247376312	
1.737579364583618E12	-1.817770030225893	9.036144578313253	1.054111456324247	-1.4164947462973934	8.969406118776243	0.7612269222599674	-7.443777510020122	13.466953784992546	-9.067884526318592	0.02848575712143928	-1.1514242878560719	-0.020989505247376312	
1.737579364588602E12	-1.6629662334971322	9.084337349397591	1.2363823858577998	-1.8727562943285718	8.98620275944811	0.8260364254355093	-4.821100352675598	9.8227596488322	-6.404512971337458	0.0239880059970015	-1.154422788605697	-0.026986506746626684	
1.7375793645935864E12	-1.5663493891574698	9.156626506024097	1.2132521687590276	-1.8727562943285718	8.98620275944811	0.8260364254355093	-4.260449647845433	9.40864667881398	-4.276627864767569	0.0239880059970015	-1.154422788605697	-0.026986506746626684	
1.7375793645985708E12	-1.492621822155134	9.228915662650603	1.069411131176039	-1.540282049950655	9.113377324535092	0.9459731672787165	-4.273137870065642	11.992711611727678	-3.0078056427466655	0.01649175412293853	-1.1619190404797601	-0.0239880059970015	
1.7375793646035552E12	-1.468768785772025	9.240963855421688	1.0937460470820388	-1.540282049950655	9.113377324535092	0.9459731672787165	-4.250299138255768	13.781679642206393	-2.228891687440024	0.01649175412293853	-1.1619190404797601	-0.0239880059970015	
1.7375793646085396E12	-1.492501352274411	9.289156626506024	1.057364143103762	-1.4570455903840582	9.230953809238152	0.8257206277479412	-4.877359659624822	15.703163823090938	-2.3099758445622887	0.025487256371814093	-1.1499250374812593	-0.026986506746626684	
1.737579364613524E12	-1.5408097744442424	9.313253012048193	1.068929251653148	-1.4570455903840582	9.230953809238152	0.8257206277479412	-5.923159825132481	16.978631770747057	-1.8647219277932774	0.025487256371814093	-1.1499250374812593	-0.026986506746626684	
1.7375793646185083E12	-1.552615822755074	9.349397590361447	1.044714805627871	-1.526187976155955	9.28374325134973	0.8186366830864246	-7.071607827792615	18.303793274805365	-1.8744392728058972	0.022488755622188904	-1.1604197901049476	-0.025487256371814093	
1.7375793646234927E12	-1.5403278949213512	9.265060240963855	1.0207412993640395	-1.526187976155955	9.28374325134973	0.8186366830864246	-7.779465646221227	18.784164320026502	-1.532761564707339	0.022488755622188904	-1.1604197901049476	-0.025487256371814093	
1.7375793646284768E12	-0.5291037161344107	9.518072289156628	1.103142697778415	-1.5617626764462242	9.355728854229154	0.7497966398631811	-8.65275815520068	10.800066258075201	26.07214017550423	0.029985007496251874	-1.158920539730135	-0.026986506746626684	
1.7375793646334612E12	-1.2154206266120375	9.542168674698795	1.0601349503603856	-1.5617626764462242	9.355728854229154	0.7497966398631811	-4.068775222570785	18.320357793606096	13.309375243295964	0.029985007496251874	-1.158920539730135	-0.026986506746626684	
1.7375793646384456E12	-2.0685883218907026	9.421686746987952	0.834735803528081	-0.9234832746281921	9.475704859028193	0.8219697360285445	-8.082909756674814	25.559052509524598	-4.879009018582933	0.01649175412293853	-1.158920539730135	-0.022488755622188904	
1.73757936464343E12	-1.9608882485245451	9.506024096385543	0.9081019608882485	-0.9234832746281921	9.475704859028193	0.8219697360285445	-8.550545891342951	23.405665065429847	-2.5258090280325867	0.01649175412293853	-1.158920539730135	-0.022488755622188904	
1.7375793646484143E12	-1.7699434875789528	9.566265060240964	1.0907343000639695	-2.1312340307160147	9.470905818836233	0.7014243995421019	-7.213270813344415	19.96024515487825	0.04071073719793926	0.031484257871064465	-1.1394302848575713	-0.0239880059970015	
1.7375793646533987E12	-1.6491121972140135	9.506024096385543	1.0557980346543658	-2.1312340307160147	9.470905818836233	0.7014243995421019	-8.57883734163411	19.26453536524764	1.834729569230208	0.031484257871064465	-1.1394302848575713	-0.0239880059970015	
1.737579364658383E12	-1.4446748096274709	9.361445783132531	1.0939869868434844	-1.6301830814998226	9.502099580083982	0.8220871003952995	-9.717991583453804	20.80503561371542	2.427029708320645	0.0239880059970015	-1.143928035982009	-0.019490254872563718	
1.7375793646633674E12	-1.398414375429927	9.361445783132531	1.287220675522809	-1.6301830814998226	9.502099580083982	0.8220871003952995	-9.28110146271594	21.865164816962064	3.1484311107977065	0.0239880059970015	-1.143928035982009	-0.019490254872563718	
1.7375793646683518E12	-1.3876925560456002	9.325301204819278	1.4198580141985802	-1.37490653114281	9.326934613077384	0.9912849867016987	-7.498197074919754	23.190326321020372	4.031039804379645	0.03298350824587706	-1.1634182908545727	-0.031484257871064465	
1.737579364673336E12	-1.4127502912359367	9.361445783132531	1.5159929790153515	-1.3808107712867073	9.326934613077384	1.2864969938965691	-4.707450302027551	24.94616531389763	5.2013854860628825	0.03298350824587706	-1.1634182908545727	-0.031484257871064465	
1.7375793646783203E12	-1.3884153753299369	9.265060240963855	1.4921399426322428	-1.379412570761254	9.25494901019796	1.2165869676238943	-2.783690393219745	26.40384296836177	5.780984191806059	0.026986506746626684	-1.1469265367316341	-0.025487256371814093	
1.7375793646833047E12	-1.2916780611095517	9.265060240963855	1.4569627374611935	-1.3625576184740238	9.25494901019796	1.1821534410221992	-1.694519267105159	27.34802054000331	5.592814918785442	0.026986506746626684	-1.1469265367316341	-0.025487256371814093	
1.737579364688289E12	-1.3629962304974321	9.313253012048193	1.3598640135986402	-1.3625542598176206	9.238152369526095	1.1819855082020445	-1.5761031428000525	28.573794931257247	6.002351033450867	0.020989505247376312	-1.1454272863568216	-0.0239880059970015	
1.7375793646932734E12	-1.3744408691660954	9.253012048192772	1.2995086033565317	-1.3996946592220363	9.28374325134973	1.0759569795775632	-2.2664814235203434	29.302633758489314	6.127468538864376	0.020989505247376312	-1.1454272863568216	-0.0239880059970015	
1.7375793646982578E12	-1.4214241226479762	9.361445783132531	1.1785568431108697	-1.3996946592220363	9.28374325134973	1.0759569795775632	-3.216817307853744	29.683617690906075	6.21465574708956	0.020989505247376312	-1.1424287856071964	-0.020989505247376312	
1.7375793647032422E12	-1.445277159031085	9.3855421686747	1.15422192720487	-1.4248330730338943	9.350929814037192	0.9471963768679339	-4.501180845975177	29.733311247308265	6.013949834883695	0.020989505247376312	-1.1424287856071964	-0.020989505247376312	
1.7375793647082266E12	-1.4697325448178074	9.44578313253012	1.1901219516602557	-1.4248330730338943	9.350929814037192	0.9471963768679339	-5.8158686952799945	29.733311247308265	5.782887904722228	0.0239880059970015	-1.1484257871064467	-0.017991004497751123	
1.7375793647132107E12	-1.4225083515744812	9.397590361445783	1.2869797357613637	-1.438138606359369	9.389322135572884	1.0351058375989404	-6.764669372963605	29.38545635249296	5.716554447968538	0.0239880059970015	-1.1484257871064467	-0.017991004497751123	
1.737579364718195E12	-1.4834661112202032	9.3855421686747	1.3586593147914123	-1.438138606359369	9.389322135572884	1.0351058375989404	-6.719172141404266	29.3523273148915	5.761011996475576	0.01649175412293853	-1.1529235382308844	-0.0239880059970015	
