"sep=	"
Shimmer_952D_TimestampSync_Unix_CAL	Shimmer_952D_Accel_LN_X_CAL	Shimmer_952D_Accel_LN_Y_CAL	Shimmer_952D_Accel_LN_Z_CAL	Shimmer_952D_Accel_WR_X_CAL	Shimmer_952D_Accel_WR_Y_CAL	Shimmer_952D_Accel_WR_Z_CAL	Shimmer_952D_Gyro_X_CAL	Shimmer_952D_Gyro_Y_CAL	Shimmer_952D_Gyro_Z_CAL	Shimmer_952D_Mag_X_CAL	Shimmer_952D_Mag_Y_CAL	Shimmer_952D_Mag_Z_CAL	
ms	m/(s^2)	m/(s^2)	m/(s^2)	m/(s^2)	m/(s^2)	m/(s^2)	deg/s	deg/s	deg/s	local_flux	local_flux	local_flux	
1.7375797460411748E12	-0.40116470280682776	9.578313253012048	0.35743413610446184	-0.4082590983040465	9.662867426514696	0.1184976403755321	0.2394175893291466	1.4576776544641377	0.5605381574375574	0.019490254872563718	-1.128935532233883	-0.041979010494752625	
1.7375797460461377E12	-0.4009237630453822	9.710843373493976	0.3333401599599076	-0.42428760528550175	9.682063587282542	0.11160890168848253	0.227322201851762	1.4742421732648665	0.23868333702900815	0.022488755622188904	-1.1499250374812593	-0.04497751124437781	
1.7375797460511003E12	-0.41321169087910486	9.686746987951807	0.35731366622373906	-0.42428760528550175	9.682063587282542	0.11160890168848253	0.3789520383719631	1.639887361272155	0.3896353664790346	0.022488755622188904	-1.1499250374812593	-0.04497751124437781	
1.737579746056063E12	-0.4245358596670453	9.74698795180723	0.2849112679093536	-0.4147315679179109	9.696460707858428	0.09570079774311913	0.3188618530110704	1.8055325492794434	0.27307962998025	0.01199400299850075	-1.1424287856071964	-0.04497751124437781	
1.737579746061026E12	-0.412609341475491	9.771084337349398	0.2970787258623535	-0.4147315679179109	9.696460707858428	0.09570079774311913	0.5033466894519427	1.5736292860692396	0.20131880365719063	0.01199400299850075	-1.1424287856071964	-0.04497751124437781	
1.7375797460659885E12	-0.40080329316465946	9.74698795180723	0.3212931718876305	-0.40799193320845295	9.710857828434312	0.10513938559585723	0.5492544681624099	1.8220970680801722	0.2047216370515093	0.02848575712143928	-1.128935532233883	-0.04497751124437781	
1.7375797460709514E12	-0.4009237630453822	9.734939759036145	0.3333401599599076	-0.40799193320845295	9.710857828434312	0.10513938559585723	0.6736507753630453	1.739274474076528	0.016239462164071246	0.02848575712143928	-1.128935532233883	-0.04497751124437781	
1.737579746075914E12	-0.4248972693092137	9.74698795180723	0.32105223212618494	-0.42370091071344196	9.746850629874025	0.08227417308549279	0.6553087403360718	1.3417260228590357	0.3190493967144108	0.026986506746626684	-1.1229385307346327	-0.04947526236881559	
1.7375797460808767E12	-0.4250177391899364	9.74698795180723	0.33309922019846205	-0.42370091071344196	9.746850629874025	0.08227417308549279	0.6124304670251535	1.5073712108663242	0.012696023365211364	0.026986506746626684	-1.1229385307346327	-0.04947526236881559	
1.7375797460858396E12	-0.40104423292610497	9.74698795180723	0.34538714803218473	-0.41233654464964437	9.727654469106177	0.09142307543833697	0.580058883564471	1.4576776544641377	0.18706723313943524	0.019490254872563718	-1.1469265367316341	-0.037481259370314844	
1.7375797460908022E12	-0.36454185906710534	9.710843373493976	0.3096075934575217	-0.41233654464964437	9.727654469106177	0.09142307543833697	1.0277201218891483	1.5570647672685107	-0.1686431230649012	0.019490254872563718	-1.1469265367316341	-0.037481259370314844	
1.7375797460957651E12	-0.4127298113562138	9.771084337349398	0.3091257139346306	-0.4048564808819113	9.730053989202158	0.06384021037732013	1.3629590485663212	1.4742421732648665	-0.0018772915478897506	0.01199400299850075	-1.1514242878560719	-0.04047976011994003	
1.7375797461007278E12	-0.4363419079778769	9.951807228915664	0.26069682188407667	-0.4048564808819113	9.730053989202158	0.06384021037732013	1.2264955079394522	1.2920324664568494	-0.13806534218410185	0.01199400299850075	-1.1514242878560719	-0.04047976011994003	
1.7375797461056904E12	-0.4247767994284909	9.698795180722891	0.30900524405390783	-0.43301911657954806	9.696460707858428	0.08629070195661809	1.6843626880429001	1.2589034288553917	0.017023691881502028	0.017991004497751123	-1.1469265367316341	-0.04497751124437781	
1.7375797461106533E12	-0.4129707511176593	9.698795180722891	0.33321969007918484	-0.43301911657954806	9.696460707858428	0.08629070195661809	1.6229481184718932	1.5073712108663242	0.03290637639414616	0.017991004497751123	-1.1469265367316341	-0.04497751124437781	
1.737579746115616E12	-0.4004418835224911	9.72289156626506	0.2851522076707992	-0.4072966714101869	9.694061187762447	0.07037629568255374	1.8822159564309373	1.4411131356634088	0.13981323898898254	0.026986506746626684	-1.1424287856071964	-0.04497751124437781	
1.7375797461205789E12	-0.41321169087910486	9.771084337349398	0.35731366622373906	-0.4072966714101869	9.694061187762447	0.07037629568255374	2.221381664360086	1.5736292860692396	-0.08609905469165535	0.026986506746626684	-1.1424287856071964	-0.04497751124437781	
1.7375797461255415E12	-0.43658284773932243	9.710843373493976	0.2847907980286309	-0.41838283679306654	9.70605878824235	0.04731735928381233	2.220630622241752	1.7724035116779857	-0.01099484285815984	0.035982008995502246	-1.136431784107946	-0.043478260869565216	
1.7375797461305042E12	-0.38863583521165956	9.795180722891567	0.3093666536960762	-0.41838283679306654	9.70605878824235	0.04731735928381233	2.2668573663508993	1.7558389928772569	-0.03948854933189408	0.035982008995502246	-1.136431784107946	-0.043478260869565216	
1.737579746135467E12	-0.3882744255694912	9.783132530120483	0.27322568947924486	-0.4046176897643114	9.689262147570485	0.051900654497323555	2.590690671204753	2.1036938876925624	-0.26355410362994314	0.010494752623688156	-1.136431784107946	-0.04047976011994003	
1.7375797461404297E12	-0.4004418835224911	9.74698795180723	0.2851522076707992	-0.4046176897643114	9.689262147570485	0.051900654497323555	2.558889117594538	2.2030810004969354	-0.14618587890246415	0.010494752623688156	-1.136431784107946	-0.04047976011994003	
1.7375797461453926E12	-0.4004418835224911	9.795180722891567	0.2851522076707992	-0.4256322661801786	9.70365926814637	0.06336850531377955	3.0477935602246182	2.4018552261056816	-0.032035961206090396	0.010494752623688156	-1.1349325337331333	-0.046476761619190406	
1.7375797461503552E12	-0.4363419079778769	9.867469879518072	0.26069682188407667	-0.4256322661801786	9.70365926814637	0.06336850531377955	3.0165686609474944	2.584064932913699	0.02766683021226709	0.010494752623688156	-1.1349325337331333	-0.046476761619190406	
1.7375797461553179E12	-0.4003214136417683	9.759036144578314	0.2731052195985221	-0.4275280505480579	9.713257348530293	0.04268428259919953	2.5887233878353095	2.7662746397217157	-0.06682576668562612	0.020989505247376312	-1.1379310344827587	-0.050974512743628186	
1.7375797461602808E12	-0.388394895450214	9.74698795180723	0.28527267755152197	-0.4275280505480579	9.713257348530293	0.04268428259919953	2.834888763384879	2.550935895312241	-0.18106623129036908	0.020989505247376312	-1.1379310344827587	-0.050974512743628186	
1.7375797461652434E12	-0.4006828232839367	9.819277108433736	0.3092461838153534	-0.4278961059409363	9.708458308338331	0.061087052243120436	2.698648133158646	3.064435978134835	-0.3395453219901723	0.0239880059970015	-1.143928035982009	-0.037481259370314844	
1.7375797461702063E12	-0.42441538978632254	9.819277108433736	0.2728642798370765	-0.4278961059409363	9.708458308338331	0.061087052243120436	2.543076610300565	2.832532714924631	-0.09632871765220177	0.0239880059970015	-1.143928035982009	-0.037481259370314844	
1.737579746175169E12	-0.36454185906710534	9.74698795180723	0.3096075934575217	-0.4264193019226355	9.718056388722255	0.10272029243662366	2.451899478793362	3.263210203743581	-0.1669769758139311	0.019490254872563718	-1.1424287856071964	-0.046476761619190406	
1.7375797461801316E12	-0.3170767260623335	9.698795180722891	0.38237140141407544	-0.4264193019226355	9.718056388722255	0.10272029243662366	2.2675658444485496	3.4454199105515984	-0.11033635909692736	0.019490254872563718	-1.1424287856071964	-0.046476761619190406	
1.7375797461850945E12	-0.40152611244899605	9.783132530120483	0.39357510032129317	-0.41944615398421103	9.718056388722255	0.10048321884103674	2.298473434447649	3.5116779857545137	-0.1383082227128261	0.02848575712143928	-1.1499250374812593	-0.046476761619190406	
1.7375797461900571E12	-0.412609341475491	9.759036144578314	0.2970787258623535	-0.41944615398421103	9.718056388722255	0.10048321884103674	2.2351694191780282	3.6441941361603445	0.06651903166120907	0.02848575712143928	-1.1499250374812593	-0.046476761619190406	
1.73757974619502E12	-0.40104423292610497	9.74698795180723	0.34538714803218473	-0.3988976444101616	9.727654469106177	0.11231871011547229	2.036103221780195	3.8926619181712767	0.06502238553336172	0.020989505247376312	-1.1454272863568216	-0.04497751124437781	
1.7375797461999827E12	-0.37658884713938245	9.759036144578314	0.3094871235767989	-0.3988976444101616	9.727654469106177	0.11231871011547229	1.9634988211875106	3.876097399370548	-0.3315053959332829	0.020989505247376312	-1.1454272863568216	-0.04497751124437781	
1.7375797462049453E12	-0.37682978690082797	9.74698795180723	0.33358109972135314	-0.38481200828882495	9.722855428914217	0.10087755069991022	2.0386007881043624	3.776710286566175	-0.1847342468834401	0.02848575712143928	-1.1484257871064467	-0.041979010494752625	
1.7375797462099082E12	-0.36454185906710534	9.759036144578314	0.3096075934575217	-0.38481200828882495	9.722855428914217	0.10087755069991022	2.1911212759943677	3.8098393241676325	-0.12284735441380559	0.02848575712143928	-1.1484257871064467	-0.041979010494752625	
1.7375797462148708E12	-0.3888767749731051	9.771084337349398	0.3334606298406304	-0.38255200699252795	9.737252549490101	0.1033509269936032	1.9782777556188984	3.3460327977472253	-0.27800527092506855	0.014992503748125937	-1.158920539730135	-0.04047976011994003	
1.7375797462198337E12	-0.3888767749731051	9.710843373493976	0.3334606298406304	-0.38255200699252795	9.737252549490101	0.1033509269936032	2.126707011195619	3.3460327977472253	0.19300485287302424	0.014992503748125937	-1.158920539730135	-0.04047976011994003	
1.7375797462247964E12	-0.37682978690082797	9.734939759036145	0.33358109972135314	-0.38014834717922485	9.725254949010196	0.09864137743699485	2.0358753430175907	3.246645684942852	0.0878102617937353	0.0074962518740629685	-1.143928035982009	-0.050974512743628186	
1.737579746229759E12	-0.3400864732803828	9.795180722891567	0.27370756900213594	-0.38014834717922485	9.725254949010196	0.09864137743699485	2.1294771715401013	3.4288553917508695	-0.08401118157519372	0.0074962518740629685	-1.143928035982009	-0.050974512743628186	
1.737579746234722E12	-0.36442138918638256	9.74698795180723	0.2975606053852446	-0.34495827993006056	9.718056388722255	0.0712396316069531	2.264779122897508	3.5282425045552426	0.1683357960072323	0.01649175412293853	-1.1379310344827587	-0.043478260869565216	
1.7375797462396846E12	-0.35249487099482824	9.74698795180723	0.3097280633382445	-0.34495827993006056	9.718056388722255	0.0712396316069531	2.0376400845506395	3.147258572138479	-0.08866389151110686	0.01649175412293853	-1.1379310344827587	-0.043478260869565216	
1.7375797462446475E12	-0.3162334368972741	9.771084337349398	0.2980424849081357	-0.32657799770811735	9.715656868626274	0.07601304937815503	2.2224190445803527	2.8987907901275465	-0.18983707671830655	0.02848575712143928	-1.1484257871064467	-0.043478260869565216	
1.73757974624961E12	-0.32828042496955123	9.74698795180723	0.2979220150274129	-0.32657799770811735	9.715656868626274	0.07601304937815503	2.729897874245609	2.6337584893158854	-0.4017322943924423	0.02848575712143928	-1.1484257871064467	-0.043478260869565216	
1.7375797462545728E12	-0.341050232326165	9.710843373493976	0.3700834735803528	-0.33622676863601425	9.70365926814637	0.09655783133881751	2.668958440531311	2.5178068577107835	-0.43336319555068914	0.026986506746626684	-1.1424287856071964	-0.04947526236881559	
1.7375797462595356E12	-0.36466232894782813	9.698795180722891	0.3216545815297988	-0.33622676863601425	9.70365926814637	0.09655783133881751	3.004938472602883	2.335597150902766	-0.3407079034736082	0.026986506746626684	-1.1424287856071964	-0.04947526236881559	
1.7375797462644983E12	-0.30394550906355144	9.734939759036145	0.27406897864430424	-0.3539574361277579	9.686862627474504	0.05930367705764278	3.0831212846596183	2.13682292529402	-0.5020212684120654	0.026986506746626684	-1.1574212893553224	-0.05247376311844078	
1.7375797462694612E12	-0.27997200279972	9.698795180722891	0.2863569064780269	-0.3539574361277579	9.686862627474504	0.05930367705764278	2.866557332226249	2.3190326321020374	-0.2851359791333284	0.026986506746626684	-1.1574212893553224	-0.05247376311844078	
1.7375797462744238E12	-0.35153111194904607	9.771084337349398	0.2133521587600276	-0.3415849961020342	9.70125974805039	0.018048881314177895	2.560075548673839	2.037435812489647	-0.2648289868325906	0.031484257871064465	-1.1514242878560719	-0.046476761619190406	
1.7375797462793865E12	-0.3751432085707092	9.807228915662652	0.16492326670947363	-0.3415849961020342	9.70125974805039	0.018048881314177895	2.1619961497391627	2.0043067748881893	-0.2731218651872987	0.031484257871064465	-1.1514242878560719	-0.046476761619190406	
1.7375797462843494E12	-0.32791901532738293	9.759036144578314	0.26178105081058156	-0.3416320825942735	9.70605878824235	0.02040320592614628	2.3610573787750284	1.8055325492794434	-0.2711283828626688	0.013493253373313342	-1.1394302848575713	-0.04497751124437781	
1.737579746289312E12	-0.2921394607527199	9.759036144578314	0.29828342466958124	-0.3416320825942735	9.70605878824235	0.02040320592614628	2.3922955270173993	1.4908066920655954	-0.3321560708057797	0.013493253373313342	-1.1394302848575713	-0.04497751124437781	
1.737579746294275E12	-0.3763479073779369	9.72289156626506	0.2853931474322447	-0.33987611827893954	9.70365926814637	0.04807843126799379	2.714269196344446	1.42454861686268	-0.3702580724231328	0.013493253373313342	-1.1349325337331333	-0.041979010494752625	
1.7375797462992375E12	-0.33948412387676896	9.734939759036145	0.21347262864075037	-0.33987611827893954	9.70365926814637	0.04807843126799379	2.6526118429249315	1.1760808348517475	-0.3300970030597675	0.013493253373313342	-1.1349325337331333	-0.041979010494752625	
1.7375797463042002E12	-0.35201299147193715	9.74698795180723	0.26154011104913605	-0.3509584451973585	9.696460707858428	0.02482757164621853	2.620369931991782	1.2920324664568494	-0.16869304603887503	0.017991004497751123	-1.143928035982009	-0.046476761619190406	
1.737579746309163E12	-0.35189252159121437	9.759036144578314	0.24949312297685894	-0.3509584451973585	9.696460707858428	0.02482757164621853	2.682075312910319	1.0601292032466456	-0.2136568653044712	0.017991004497751123	-1.143928035982009	-0.046476761619190406	
1.7375797463141257E12	-0.3638190397827687	9.759036144578314	0.23732566502385904	-0.3601954328965407	9.70125974805039	0.024783192171146315	2.8031198370714137	0.8613549776378996	-0.06696073623778728	0.014992503748125937	-1.1469265367316341	-0.037481259370314844	
1.7375797463190886E12	-0.3880334858080457	9.698795180722891	0.2491317133346906	-0.3601954328965407	9.70125974805039	0.024783192171146315	2.113123454334728	0.6957097896306111	0.01996697081509079	0.014992503748125937	-1.1469265367316341	-0.037481259370314844	
1.7375797463240513E12	-0.38779254604660013	9.686746987951807	0.2250377371901364	-0.3572838976378138	9.686862627474504	-0.0053201296566504075	1.869335909305729	0.5300646016233228	-0.10357561663720168	0.029985007496251874	-1.1334332833583207	-0.05247376311844078	
1.737579746329014E12	-0.3639395096634915	9.674698795180724	0.24937265309613615	-0.3572838976378138	9.686862627474504	-0.0053201296566504075	1.562119644841543	0.28159681961239025	-0.009820533158910079	0.029985007496251874	-1.1334332833583207	-0.05247376311844078	
1.7375797463339768E12	-0.36405997954421426	9.686746987951807	0.26141964116841326	-0.3571849265727593	9.653269346130774	-0.010268682909379503	1.2384060757912874	0.19877422560874605	0.2022714407793726	0.02848575712143928	-1.1334332833583207	-0.043478260869565216	
1.7375797463389395E12	-0.3753841483321547	9.72289156626506	0.18901724285402785	-0.3571849265727593	9.653269346130774	-0.010268682909379503	0.8700362429318172	0.513500082822594	0.28580909119805137	0.02848575712143928	-1.1334332833583207	-0.043478260869565216	
1.7375797463439023E12	-0.36405997954421426	9.698795180722891	0.26141964116841326	-0.3544170498310385	9.665266946610677	-0.033189078886874904	1.5284236771707465	0.31472585721384794	0.2969890976267425	0.019490254872563718	-1.143928035982009	-0.043478260869565216	
1.737579746348865E12	-0.3755046182128775	9.674698795180724	0.20106423092630496	-0.3544170498310385	9.665266946610677	-0.033189078886874904	1.174066831538426	0.44724200761967864	0.5106215934774787	0.019490254872563718	-1.143928035982009	-0.043478260869565216	
1.7375797463538276E12	-0.3756250880936003	9.66265060240964	0.21311121899858207	-0.3727026792604453	9.655668866226755	-0.04269513628489287	1.2824343455270764	0.23190326321020371	0.39362517164151734	0.02848575712143928	-1.1334332833583207	-0.04497751124437781	
1.7375797463587905E12	-0.4000804738803228	9.614457831325302	0.24901124345396786	-0.3727026792604453	9.655668866226755	-0.04269513628489287	1.219008938333202	0.11595163160510186	0.610591618440913	0.02848575712143928	-1.1334332833583207	-0.04497751124437781	
1.7375797463637532E12	-0.4117660523104316	9.674698795180724	0.21274980935641374	-0.38868170070937336	9.658068386322734	-0.052058151598307	1.6168008381616608	0.09938711280437303	0.6476344074173848	0.037481259370314844	-1.1514242878560719	-0.05247376311844078	
1.737579746368716E12	-0.3517720517104916	9.74698795180723	0.23744613490458183	-0.38868170070937336	9.658068386322734	-0.052058151598307	1.3405986505349243	0.31472585721384794	0.7027689434447647	0.037481259370314844	-1.1514242878560719	-0.05247376311844078	
1.7375797463736787E12	-0.37526367845143194	9.771084337349398	0.17697025478175074	-0.39081051849816156	9.679664067186561	-0.061090703267441274	1.5409643903330328	0.23190326321020371	0.5743113495450959	0.029985007496251874	-1.1454272863568216	-0.041979010494752625	
1.7375797463786414E12	-0.351049232426155	9.72289156626506	0.16516420647091917	-0.39081051849816156	9.679664067186561	-0.061090703267441274	1.3719946253559803	-0.11595163160510186	0.6259585976332215	0.029985007496251874	-1.1454272863568216	-0.041979010494752625	
1.7375797463836042E12	-0.3633371602598776	9.72289156626506	0.1891377127347506	-0.4049437209197952	9.691661667666466	-0.04727122883703157	1.3568250172213363	-0.06625807520291535	0.6115258429505955	0.025487256371814093	-1.1469265367316341	-0.043478260869565216	
1.737579746388567E12	-0.3995985943574317	9.66265060240964	0.20082329116485942	-0.4049437209197952	9.691661667666466	-0.04727122883703157	1.4953557035733749	-0.0828225940036442	0.5409993210698543	0.025487256371814093	-1.1469265367316341	-0.043478260869565216	
1.7375797463935298E12	-0.39911671483454064	9.795180722891567	0.15263533887575098	-0.4072993346247437	9.694061187762447	-0.04496398469815008	1.7256401757657083	-0.44724200761967864	0.4834556240417208	0.025487256371814093	-1.1319340329835081	-0.04047976011994003	
1.7375797463984924E12	-0.3634576301406004	9.710843373493976	0.20118470080702772	-0.4072993346247437	9.694061187762447	-0.04496398469815008	1.7104440697005694	-0.1325161504058307	0.4716726624086016	0.025487256371814093	-1.1319340329835081	-0.04047976011994003	
1.737579746403455E12	-0.3393636539960462	9.734939759036145	0.20142564056847326	-0.39825021308646147	9.70605878824235	-0.035526297178083574	1.5419080375638268	-0.4306774888189498	0.4799466264656905	0.020989505247376312	-1.1424287856071964	-0.04047976011994003	
1.737579746408418E12	-0.41116370290681775	9.867469879518072	0.1525148689950282	-0.39825021308646147	9.70605878824235	-0.035526297178083574	1.2315711810640158	-0.1822097068080172	0.8857609135065422	0.020989505247376312	-1.1424287856071964	-0.04047976011994003	
1.7375797464133806E12	-0.3630962204984321	9.771084337349398	0.1650437365901964	-0.40716287322860145	9.70365926814637	-0.051787054505262914	0.9422681871484611	-0.1325161504058307	0.7195825102687484	0.025487256371814093	-1.1349325337331333	-0.04497751124437781	
1.7375797464183435E12	-0.37526367845143194	9.771084337349398	0.17697025478175074	-0.40716287322860145	9.70365926814637	-0.051787054505262914	0.9430026680602366	-0.1656451880072884	0.6461344190911947	0.025487256371814093	-1.1349325337331333	-0.04497751124437781	
1.7375797464233062E12	-0.37526367845143194	9.759036144578314	0.17697025478175074	-0.40489855365978616	9.696460707858428	-0.049529591837483025	0.7432019897506277	0.11595163160510186	0.7180858641409011	0.019490254872563718	-1.136431784107946	-0.04497751124437781	
1.7375797464282688E12	-0.4351372091706492	9.698795180722891	0.14022694116130555	-0.40489855365978616	9.696460707858428	-0.049529591837483025	0.45318273225051287	0.016564518800728838	0.6235338193591254	0.019490254872563718	-1.136431784107946	-0.04497751124437781	
1.7375797464332317E12	-0.42321069097909486	9.710843373493976	0.15239439911430544	-0.40720372221609225	9.677264547090582	-0.04974460513072454	0.14724613673873108	0.1325161504058307	0.5893220075970309	0.029985007496251874	-1.1229385307346327	-0.047976011994003	
1.7375797464381943E12	-0.43573955857426305	9.686746987951807	0.2004618815226911	-0.40720372221609225	9.677264547090582	-0.04974460513072454	0.28412353675803925	0.5631936392247805	0.6841241189893363	0.029985007496251874	-1.1229385307346327	-0.047976011994003	
1.7375797464431572E12	-0.41164558242970883	9.698795180722891	0.20070282128413663	-0.40235507379393776	9.677264547090582	-0.061230144021358845	0.2984124302468149	0.5466291204240517	0.7866283382587892	0.020989505247376312	-1.12143928035982	-0.04497751124437781	
1.7375797464481199E12	-0.42393351026343146	9.66265060240964	0.2246763275479681	-0.40235507379393776	9.677264547090582	-0.061230144021358845	0.2080260877536889	0.38098393241676326	0.6369011786893043	0.020989505247376312	-1.12143928035982	-0.04497751124437781	
1.7375797464530825E12	-0.42333116085981765	9.698795180722891	0.16444138718658255	-0.40923644778817136	9.679664067186561	-0.06358176763531254	0.025048303911454375	0.1656451880072884	0.5579567451485901	0.038980509745127435	-1.1574212893553224	-0.05547226386806597	
1.7375797464580454E12	-0.42357210062126316	9.698795180722891	0.18853536333113677	-0.40923644778817136	9.679664067186561	-0.06358176763531254	0.14884808333112737	0.19877422560874605	0.42912734835740357	0.038980509745127435	-1.1574212893553224	-0.05547226386806597	
1.737579746463008E12	-0.39935765459598616	9.74698795180723	0.1767293150203052	-0.4254480228499507	9.691661667666466	-0.06131710230616012	0.2837229263308477	0.1822097068080172	0.7241851617084897	0.02848575712143928	-1.1229385307346327	-0.04497751124437781	
1.737579746467971E12	-0.44778654664654016	9.710843373493976	0.20034141164196834	-0.4254480228499507	9.691661667666466	-0.06131710230616012	0.11543795864589224	0.2981613384131191	0.7073526805868866	0.02848575712143928	-1.1229385307346327	-0.04497751124437781	
1.7375797464729336E12	-0.42369257050198594	9.650602409638555	0.20058235140341388	-0.4305758315691383	9.70365926814637	-0.03587354856387015	0.3764589452933931	0.24846778201093256	0.6389446743360401	0.025487256371814093	-1.12143928035982	-0.038980509745127435	
1.7375797464778962E12	-0.3999600039996	9.614457831325302	0.23696425538169075	-0.4305758315691383	9.70365926814637	-0.03587354856387015	0.5143649498133182	0.6294517144276959	0.6308863356666512	0.025487256371814093	-1.12143928035982	-0.038980509745127435	
1.7375797464828591E12	-0.47200099267181717	9.72289156626506	0.2121474599527999	-0.4255417160263718	9.698860227954409	-0.05663244348510259	0.16296755739662702	0.41411297001822095	0.5485735099544479	0.026986506746626684	-1.136431784107946	-0.046476761619190406	
1.7375797464878218E12	-0.3992371847152634	9.698795180722891	0.1646823269480281	-0.4255417160263718	9.698860227954409	-0.05663244348510259	0.54686786192219	0.8282259400364419	0.44338226107350176	0.026986506746626684	-1.136431784107946	-0.046476761619190406	
1.7375797464927847E12	-0.42369257050198594	9.710843373493976	0.20058235140341388	-0.420921782752608	9.689262147570485	-0.05668222495620419	0.3164967763393777	0.5963226768262382	0.5095872971495182	0.020989505247376312	-1.1559220389805096	-0.047976011994003	
1.7375797464977473E12	-0.42369257050198594	9.710843373493976	0.20058235140341388	-0.420921782752608	9.689262147570485	-0.05668222495620419	0.4872644052625978	0.513500082822594	0.278153654444667	0.020989505247376312	-1.1559220389805096	-0.047976011994003	
1.73757974650271E12	-0.3751432085707092	9.771084337349398	0.16492326670947363	-0.4120096024185256	9.694061187762447	-0.040397477226145576	0.24183682286611555	0.6625807520291536	0.3186148037406678	0.037481259370314844	-1.1379310344827587	-0.043478260869565216	
1.7375797465076729E12	-0.3267143165201552	9.72289156626506	0.1413111700878105	-0.4120096024185256	9.694061187762447	-0.040397477226145576	0.41009198037926403	0.8447904588371707	0.33842830204296587	0.037481259370314844	-1.1379310344827587	-0.043478260869565216	
1.7375797465126355E12	-0.351049232426155	9.74698795180723	0.16516420647091917	-0.4021768037941895	9.708458308338331	-0.07014364400876852	0.5471338314598804	1.0932582408481033	0.4167853073044623	0.034482758620689655	-1.1349325337331333	-0.043478260869565216	
1.7375797465175984E12	-0.41164558242970883	9.72289156626506	0.20070282128413663	-0.4021768037941895	9.708458308338331	-0.07014364400876852	0.44212969335536256	1.3085969852575783	0.19744414072714242	0.034482758620689655	-1.1349325337331333	-0.043478260869565216	
1.737579746522561E12	-0.4234516307405404	9.698795180722891	0.17648837525885966	-0.40001001586625606	9.727654469106177	-0.06300959929689721	-0.04766374452386608	1.225774391253934	0.17219374794556647	0.031484257871064465	-1.1319340329835081	-0.041979010494752625	
1.7375797465275237E12	-0.39899624495381786	9.783132530120483	0.14058835080347387	-0.40001001586625606	9.727654469106177	-0.06300959929689721	0.22706782515866317	1.0932582408481033	0.2641210063388884	0.031484257871064465	-1.1319340329835081	-0.041979010494752625	
1.7375797465324866E12	-0.42321069097909486	9.795180722891567	0.15239439911430544	-0.3908662415354375	9.727654469106177	-0.05830455140364671	-0.0015848902694669952	1.225774391253934	0.15848902694669947	0.019490254872563718	-1.1454272863568216	-0.046476761619190406	
1.7375797465374492E12	-0.42357210062126316	9.674698795180724	0.18853536333113677	-0.3908662415354375	9.727654469106177	-0.05830455140364671	0.07513061608437313	1.0766937220473745	0.14390623229775576	0.019490254872563718	-1.1454272863568216	-0.046476761619190406	
1.737579746542412E12	-0.4234516307405404	9.674698795180724	0.17648837525885966	-0.3975621484090591	9.725254949010196	-0.06992953104819855	-0.03321371221509426	1.0601292032466456	0.2585840852153987	0.03298350824587706	-1.1559220389805096	-0.05397301349325337	
1.7375797465473748E12	-0.44790701652726295	9.72289156626506	0.21238839971424545	-0.3975621484090591	9.725254949010196	-0.06992953104819855	0.21074822059914874	0.9441775716415437	0.3646878941433172	0.03298350824587706	-1.1559220389805096	-0.05397301349325337	
1.7375797465523374E12	-0.4834456313404804	9.771084337349398	0.15179204971069157	-0.41128116856169006	9.742051589682063	-0.07681917006791969	0.20971133549525212	1.0766937220473745	0.4683764045329822	0.017991004497751123	-1.136431784107946	-0.047976011994003	
1.7375797465573003E12	-0.42357210062126316	9.843373493975903	0.18853536333113677	-0.41128116856169006	9.742051589682063	-0.07681917006791969	0.31864556709305825	1.0435646844459168	0.2947082217814644	0.017991004497751123	-1.136431784107946	-0.047976011994003	
1.737579746562263E12	-0.3879130159273229	9.819277108433736	0.2370847252624135	-0.41377228404666566	9.730053989202158	-0.06773683692768384	0.14522916974960967	1.2920324664568494	0.791018706509173	0.022488755622188904	-1.1274362818590704	-0.038980509745127435	
1.7375797465672258E12	-0.3633371602598776	9.74698795180723	0.1891377127347506	-0.41377228404666566	9.730053989202158	-0.06773683692768384	0.1168075532300868	1.225774391253934	0.5703932221674292	0.022488755622188904	-1.1274362818590704	-0.038980509745127435	
1.7375797465721885E12	-0.39899624495381786	9.795180722891567	0.14058835080347387	-0.4045300184588501	9.698860227954409	-0.06795635188428319	-0.05087094994997052	1.126387278449561	0.49291429055600955	0.0074962518740629685	-1.1469265367316341	-0.041979010494752625	
1.7375797465771511E12	-0.38706972676226353	9.74698795180723	0.15275580875647374	-0.4045300184588501	9.698860227954409	-0.06795635188428319	0.13273979632765723	0.8613549776378996	0.5085624805574004	0.0074962518740629685	-1.1469265367316341	-0.041979010494752625	
1.737579746582114E12	-0.3751432085707092	9.74698795180723	0.16492326670947363	-0.3931272024478497	9.718056388722255	-0.06072994689158122	0.45588664776875737	0.7619678648335265	0.35314226753467426	0.019490254872563718	-1.1454272863568216	-0.047976011994003	
1.7375797465870767E12	-0.39983953411887724	9.614457831325302	0.22491726730941364	-0.3931272024478497	9.718056388722255	-0.06072994689158122	0.5473231243310276	0.6625807520291536	0.3978560201897408	0.019490254872563718	-1.1454272863568216	-0.047976011994003	
1.7375797465920396E12	-0.37526367845143194	9.74698795180723	0.17697025478175074	-0.4000984311540438	9.708458308338331	-0.05858883490751124	0.9464062859564818	0.8944840152393573	0.3057726294666673	0.022488755622188904	-1.1259370314842578	-0.04497751124437781	
1.7375797465970022E12	-0.42333116085981765	9.650602409638555	0.16444138718658255	-0.4000984311540438	9.708458308338331	-0.05858883490751124	1.3125776444425932	0.6294517144276959	0.4420824163838674	0.022488755622188904	-1.1259370314842578	-0.04497751124437781	
1.7375797466019648E12	-0.43598049833570857	9.759036144578314	0.2245558576672453	-0.400099390770159	9.713257348530293	-0.05854085410175276	1.3291946848322609	0.7288388272320688	0.31177194556411	0.022488755622188904	-1.1274362818590704	-0.043478260869565216	
1.7375797466069277E12	-0.364180449424937	9.771084337349398	0.2734666292406904	-0.400099390770159	9.713257348530293	-0.05854085410175276	1.4795332595554664	0.6460162332284247	0.5918501547136817	0.022488755622188904	-1.1274362818590704	-0.043478260869565216	
1.7375797466118904E12	-0.33948412387676896	9.771084337349398	0.21347262864075037	-0.3582138964554305	9.710857828434312	-0.07429362988436343	1.4209186605007489	0.6791452708298823	0.3277357875974128	0.019490254872563718	-1.1259370314842578	-0.04947526236881559	
1.7375797466168533E12	-0.36273481085626375	9.759036144578314	0.12890277237336506	-0.3582138964554305	9.710857828434312	-0.07429362988436343	1.7413935578324369	0.9773066092430014	0.4395109855158624	0.019490254872563718	-1.1259370314842578	-0.04947526236881559	
1.737579746621816E12	-0.30237940061415547	9.771084337349398	0.11745813370470182	-0.34394375282959705	9.70605878824235	-0.09496016452476522	1.4653541651463529	1.027000165645188	0.4783660274780275	0.020989505247376312	-1.1259370314842578	-0.04497751124437781	
1.7375797466267786E12	-0.31490826820932366	9.734939759036145	0.16552561611308747	-0.34394375282959705	9.70605878824235	-0.09496016452476522	1.8319609125934304	0.7950969024349842	0.5711369182985967	0.020989505247376312	-1.1259370314842578	-0.04497751124437781	
1.7375797466317415E12	-0.3263529068779869	9.807228915662652	0.10517020587097917	-0.3394641194164362	9.70605878824235	-0.08799495296572012	1.9712409849431483	0.5963226768262382	0.425671796649954	0.025487256371814093	-1.1454272863568216	-0.05397301349325337	
1.737579746636704E12	-0.3386408347117095	9.783132530120483	0.1291437121348106	-0.3394641194164362	9.70605878824235	-0.08799495296572012	2.018763959211259	0.7785323836342554	0.267555074279892	0.025487256371814093	-1.1454272863568216	-0.05397301349325337	
1.737579746641667E12	-0.302620340375601	9.74698795180723	0.14155210984925604	-0.33433775012142136	9.70125974805039	-0.1133665354993724	2.385174789304566	1.0435646844459168	0.3799177004775594	0.026986506746626684	-1.1304347826086956	-0.05397301349325337	
1.7375797466466296E12	-0.3387613045924323	9.807228915662652	0.1411907002070877	-0.33433775012142136	9.70125974805039	-0.1133665354993724	2.7673765971233184	0.8944840152393573	0.44457612227768867	0.026986506746626684	-1.1304347826086956	-0.05397301349325337	
1.7375797466515923E12	-0.362614340975541	9.795180722891567	0.11685578430108796	-0.3555315561531519	9.689262147570485	-0.09293720388974826	2.9080974772454358	0.9110485340400861	0.15503022338903927	0.025487256371814093	-1.1424287856071964	-0.050974512743628186	
1.7375797466565552E12	-0.3263529068779869	9.698795180722891	0.10517020587097917	-0.3555315561531519	9.689262147570485	-0.09293720388974826	3.1652998255999663	1.027000165645188	0.46848604643523484	0.025487256371814093	-1.1424287856071964	-0.050974512743628186	
1.7375797466615178E12	-0.3147877983286009	9.698795180722891	0.15347862804081036	-0.34171836301604225	9.662867426514696	-0.09075621409396388	2.876448781851937	0.9441775716415437	0.25711262644486854	0.014992503748125937	-1.1349325337331333	-0.046476761619190406	
1.7375797466664807E12	-0.36249387109481823	9.698795180722891	0.10480879622881085	-0.34171836301604225	9.662867426514696	-0.09075621409396388	2.813757855569838	0.7950969024349842	0.4006309820667105	0.014992503748125937	-1.1349325337331333	-0.046476761619190406	
1.7375797466714434E12	-0.37454085916709534	9.698795180722891	0.10468832634808808	-0.36291792674446377	9.679664067186561	-0.07003899764978895	3.154065279320579	1.2092098724532052	0.06054710622698868	0.017991004497751123	-1.1424287856071964	-0.043478260869565216	
1.737579746676406E12	-0.3630962204984321	9.72289156626506	0.1650437365901964	-0.36291792674446377	9.679664067186561	-0.07003899764978895	2.844770276286632	1.2754679476561206	0.3621760466813928	0.017991004497751123	-1.1424287856071964	-0.043478260869565216	
1.737579746681369E12	-0.3751432085707092	9.734939759036145	0.16492326670947363	-0.3630101804967122	9.679664067186561	-0.06542631003736911	2.9064673766018885	1.126387278449561	0.3180402877437675	0.019490254872563718	-1.1379310344827587	-0.046476761619190406	
1.7375797466863315E12	-0.3390022443538779	9.783132530120483	0.16528467635164193	-0.3630101804967122	9.679664067186561	-0.06542631003736911	2.903811983699036	1.3582905416597646	0.5835795780290016	0.019490254872563718	-1.1379310344827587	-0.046476761619190406	
1.7375797466912944E12	-0.3267143165201552	9.783132530120483	0.1413111700878105	-0.36282423356804266	9.67246550689862	-0.07472365647084649	2.614395878462507	1.0766937220473745	0.4287123068885976	0.01649175412293853	-1.1424287856071964	-0.047976011994003	
1.737579746696257E12	-0.36273481085626375	9.771084337349398	0.12890277237336506	-0.36282423356804266	9.67246550689862	-0.07472365647084649	2.322007071045102	1.2754679476561206	0.5711152538358865	0.01649175412293853	-1.1424287856071964	-0.047976011994003	
1.7375797467012197E12	-0.3992371847152634	9.72289156626506	0.1646823269480281	-0.3649069244807067	9.694061187762447	-0.0860625519461907	2.000779475474423	1.1926453536524764	0.5346098798165265	0.034482758620689655	-1.1334332833583207	-0.04047976011994003	
1.7375797467061826E12	-0.3753841483321547	9.72289156626506	0.18901724285402785	-0.3649069244807067	9.694061187762447	-0.0860625519461907	2.03124173978862	1.3251615040583071	0.5511705846908237	0.034482758620689655	-1.1334332833583207	-0.04047976011994003	
1.7375797467111453E12	-0.37526367845143194	9.72289156626506	0.17697025478175074	-0.35807743505928824	9.720455908818236	-0.0811166996914763	1.892888753463137	1.027000165645188	0.6039271039160028	0.010494752623688156	-1.1379310344827587	-0.047976011994003	
1.7375797467161082E12	-0.37526367845143194	9.72289156626506	0.17697025478175074	-0.35807743505928824	9.720455908818236	-0.0811166996914763	2.061351421174648	0.5963226768262382	0.6029895823820435	0.010494752623688156	-1.1379310344827587	-0.047976011994003	
1.7375797467210708E12	-0.37526367845143194	9.734939759036145	0.17697025478175074	-0.3416352256168879	9.708458308338331	-0.09491308405167831	2.1205244572352417	0.8282259400364419	0.8112602489107267	0.031484257871064465	-1.1574212893553224	-0.05847076461769115	
1.7375797467260334E12	-0.3751432085707092	9.734939759036145	0.16492326670947363	-0.3416352256168879	9.708458308338331	-0.09491308405167831	1.9221011589967376	0.4969355640218651	0.7454736868499909	0.031484257871064465	-1.1574212893553224	-0.05847076461769115	
1.7375797467309963E12	-0.3992371847152634	9.74698795180723	0.1646823269480281	-0.3401118149144053	9.715656868626274	-0.05561017806726426	2.184738997322538	0.3644194136160344	0.5153805127691695	0.01649175412293853	-1.1484257871064467	-0.050974512743628186	
1.737579746735959E12	-0.3509287625454322	9.807228915662652	0.15311721839864206	-0.3401118149144053	9.715656868626274	-0.05561017806726426	2.1828396148999887	0.34785489481530557	0.7053187550241256	0.017991004497751123	-1.1424287856071964	-0.05547226386806597	
1.7375797467409219E12	-0.37490226880926364	9.831325301204819	0.1408292905649194	-0.3352636463003084	9.718056388722255	-0.06707172655501929	2.3691625572991404	0.7454033460327977	0.44974733287309443	0.017991004497751123	-1.1424287856071964	-0.05547226386806597	
1.7375797467458845E12	-0.3145468585671553	9.759036144578314	0.12938465189625614	-0.3352636463003084	9.718056388722255	-0.06707172655501929	2.2902634816578447	0.7950969024349842	0.6826870562675695	0.01199400299850075	-1.1454272863568216	-0.050974512743628186	
1.7375797467508472E12	-0.35153111194904607	9.734939759036145	0.2133521587600276	-0.3603393555878156	9.715656868626274	-0.08349411437365234	2.0144100696015963	0.44724200761967864	0.7029440352462015	0.01199400299850075	-1.1454272863568216	-0.050974512743628186	
1.73757974675581E12	-0.3753841483321547	9.74698795180723	0.18901724285402785	-0.3603393555878156	9.715656868626274	-0.08349411437365234	2.078578238310526	0.44724200761967864	0.41170143694128103	0.025487256371814093	-1.1484257871064467	-0.04947526236881559	
1.7375797467607727E12	-0.3876720761658774	9.710843373493976	0.21299074911785928	-0.37927459974742195	9.725254949010196	-0.06051943526169752	2.031583890876484	0.8282259400364419	0.5169554759044525	0.025487256371814093	-1.1484257871064467	-0.04947526236881559	
1.7375797467657356E12	-0.3392431841153234	9.795180722891567	0.18937865249619615	-0.37927459974742195	9.725254949010196	-0.06051943526169752	1.9203264807397535	0.6957097896306111	0.9229415125483982	0.017991004497751123	-1.1304347826086956	-0.046476761619190406	
1.7375797467706982E12	-0.3632166903791548	9.759036144578314	0.1770907246624735	-0.3840776011015098	9.727654469106177	-0.05131624977439392	2.091524530261972	0.6957097896306111	0.6484658099436984	0.017991004497751123	-1.1304347826086956	-0.046476761619190406	
1.737579746775661E12	-0.3992371847152634	9.759036144578314	0.1646823269480281	-0.3840776011015098	9.727654469106177	-0.05131624977439392	1.830608374332165	1.1595163160510187	0.7063907444251263	0.01649175412293853	-1.1349325337331333	-0.04947526236881559	
1.7375797467806238E12	-0.4592311853152034	9.734939759036145	0.13998600139986	-0.4135416496660447	9.730053989202158	-0.07926855595873347	1.6926659351578093	1.1429517972502898	0.7180925485375869	0.01649175412293853	-1.1349325337331333	-0.04947526236881559	
1.7375797467855864E12	-0.39875530519237234	9.710843373493976	0.11649437465891965	-0.4135416496660447	9.730053989202158	-0.07926855595873347	1.6779466210700351	1.0766937220473745	0.6586303891679823	0.010494752623688156	-1.1349325337331333	-0.047976011994003	
1.737579746790549E12	-0.37490226880926364	9.698795180722891	0.1408292905649194	-0.40642628263478703	9.710857828434312	-0.08861658419598399	1.7385670893856529	1.4576776544641377	0.7221578301942821	0.010494752623688156	-1.1349325337331333	-0.047976011994003	
1.737579746795512E12	-0.4229697512176493	9.72289156626506	0.12830042296975122	-0.40559599886455144	9.710857828434312	-0.13013077270776263	1.634900584456497	1.4576776544641377	0.3690533460807802	0.031484257871064465	-1.1424287856071964	-0.05397301349325337	
1.7375797468004746E12	-0.39911671483454064	9.819277108433736	0.15263533887575098	-0.4148329865637336	9.715656868626274	-0.13017515218283482	1.3738762855676843	1.5405002484677819	0.4377925764628151	0.031484257871064465	-1.1424287856071964	-0.05397301349325337	
1.7375797468054375E12	-0.3871901966429863	9.686746987951807	0.16480279682875085	-0.393864057215933	9.698860227954409	-0.13936064959596015	1.1730784690499214	1.5570647672685107	0.6094578423279267	0.038980509745127435	-1.1529235382308844	-0.05997001499250375	
1.7375797468104001E12	-0.3140649790442642	9.686746987951807	0.08119669960714772	-0.393864057215933	9.698860227954409	-0.13936064959596015	1.388736865027583	1.6564518800728838	0.483128198619929	0.038980509745127435	-1.1529235382308844	-0.05997001499250375	
1.7375797468153628E12	-0.37442038928637256	9.674698795180724	0.09264133827581097	-0.3942758404446477	9.682063587282542	-0.11877148816022545	1.358545538613044	1.739274474076528	0.43947370377980977	0.01649175412293853	-1.1409295352323838	-0.046476761619190406	
1.7375797468203257E12	-0.4104408836224811	9.72289156626506	0.08023294056136555	-0.3942758404446477	9.682063587282542	-0.11877148816022545	0.8388532417874618	1.739274474076528	0.34132206933956843	0.01649175412293853	-1.1409295352323838	-0.046476761619190406	
1.7375797468252883E12	-0.48236140241397546	9.759036144578314	0.043369157060197595	-0.38032858495168365	9.677264547090582	-0.12329361615715775	1.0953310459541523	1.7889680304787146	0.7272323111697527	0.01199400299850075	-1.1349325337331333	-0.050974512743628186	
1.7375797468302512E12	-0.38682878700081796	9.626506024096386	0.12866183261191952	-0.38032858495168365	9.677264547090582	-0.12329361615715775	0.9893049278316414	1.9877422560874605	0.6100891463917505	0.01199400299850075	-1.1349325337331333	-0.050974512743628186	
1.7375797468352139E12	-0.47043488422242113	9.74698795180723	0.055536615013197475	-0.38286678692889864	9.670065986802639	-0.11185695840495351	0.8386622927956586	2.1865164816962066	0.36041696851988414	0.014992503748125937	-1.1454272863568216	-0.04047976011994003	
1.7375797468401765E12	-0.4347757995284809	9.710843373493976	0.10408597694447422	-0.38286678692889864	9.670065986802639	-0.11185695840495351	0.7317769895958067	2.2030810004969354	0.3291923114759845	0.014992503748125937	-1.1454272863568216	-0.04047976011994003	
1.7375797468451394E12	-0.3751432085707092	9.734939759036145	0.16492326670947363	-0.37991584210685375	9.689262147570485	-0.1439307583986509	0.7134018321557143	2.13682292529402	0.6353144873382074	0.014992503748125937	-1.1349325337331333	-0.05247376311844078	
1.737579746850102E12	-0.4470637273622035	9.783132530120483	0.12805948320830568	-0.37991584210685375	9.689262147570485	-0.1439307583986509	0.5174661635174422	1.7889680304787146	0.320764965254235	0.014992503748125937	-1.1349325337331333	-0.05247376311844078	
1.737579746855065E12	-0.3880334858080457	9.759036144578314	0.2491317133346906	-0.38291771188559864	9.694061187762447	-0.10931071056995127	0.40938449251435344	2.0705648500911047	0.40917708853402684	0.019490254872563718	-1.1244377811094453	-0.05547226386806597	
1.7375797468600276E12	-0.4588697756730351	9.831325301204819	0.10384503718302868	-0.38291771188559864	9.694061187762447	-0.10931071056995127	0.6372878219448046	2.1202584064932912	0.5897476676941171	0.019490254872563718	-1.1244377811094453	-0.05547226386806597	
1.7375797468649902E12	-0.36273481085626375	9.66265060240964	0.12890277237336506	-0.3732199352332321	9.691661667666466	-0.13230577875409905	0.455754158116282	2.0871293688918335	0.36639123278220787	0.020989505247376312	-1.1274362818590704	-0.046476761619190406	
1.7375797468699531E12	-0.3385203648309868	9.63855421686747	0.1170967240625335	-0.3732199352332321	9.691661667666466	-0.13230577875409905	0.24082361856777193	2.020871293688918	0.41993523357502827	0.020989505247376312	-1.1274362818590704	-0.046476761619190406	
1.7375797468749158E12	-0.35068782278398664	9.602409638554217	0.12902324225408784	-0.35479352613516474	9.689262147570485	-0.12983870478910703	0.34712398683125295	2.0043067748881893	0.5096533842560204	0.01649175412293853	-1.1274362818590704	-0.047976011994003	
1.7375797468798787E12	-0.3746613290478181	9.710843373493976	0.1167353144203652	-0.35479352613516474	9.689262147570485	-0.12983870478910703	0.3824467429042852	1.7889680304787146	0.040164913246827805	0.01649175412293853	-1.1274362818590704	-0.047976011994003	
1.7375797468848413E12	-0.314185448924987	9.759036144578314	0.09324368767942483	-0.350039050697489	9.698860227954409	-0.13661559445580454	0.5212715528451651	1.7558389928772569	-0.05977396751805382	0.014992503748125937	-1.1274362818590704	-0.05397301349325337	
1.737579746889804E12	-0.3500854733803728	9.807228915662652	0.0687883018927023	-0.350039050697489	9.698860227954409	-0.13661559445580454	0.6614025296689442	1.8220970680801722	-0.2903295365728283	0.014992503748125937	-1.1274362818590704	-0.05397301349325337	
1.7375797468947668E12	-0.3738180398827587	9.759036144578314	0.03240639791442542	-0.37317764682156856	9.710857828434312	-0.13442019933727511	0.46034371197545876	1.523935729667053	-0.09256415313545989	0.037481259370314844	-1.1574212893553224	-0.05997001499250375	
1.7375797468997295E12	-0.3021384608527099	9.759036144578314	0.0933641575601476	-0.37317764682156856	9.710857828434312	-0.13442019933727511	0.5654195583845518	2.054000331290376	0.11960618298432449	0.037481259370314844	-1.1574212893553224	-0.05997001499250375	
1.7375797469046924E12	-0.36237340121409545	9.759036144578314	0.09276180815653375	-0.3798293460512964	9.718056388722255	-0.14825556117651995	0.27791277229450845	1.6895809176743415	-0.22619300280460053	0.020989505247376312	-1.1454272863568216	-0.04947526236881559	
1.737579746909655E12	-0.38622643759720415	9.74698795180723	0.06842689225053399	-0.3798293460512964	9.718056388722255	-0.14825556117651995	0.18664240291420237	1.5901938048699684	-0.2875174736560702	0.020989505247376312	-1.1454272863568216	-0.04947526236881559	
1.7375797469146177E12	-0.38622643759720415	9.759036144578314	0.06842689225053399	-0.37129049899872585	9.744451109778044	-0.1133041493708689	0.4763559439808842	1.8220970680801722	-0.16239378553099493	0.01649175412293853	-1.1424287856071964	-0.04947526236881559	
1.7375797469195806E12	-0.36285528073698653	9.771084337349398	0.14094976044564217	-0.37129049899872585	9.744451109778044	-0.1133041493708689	0.5520395335927955	1.7558389928772569	-0.07378490598705617	0.01649175412293853	-1.1424287856071964	-0.04947526236881559	
1.7375797469245432E12	-0.38694925688154075	9.734939759036145	0.14070882068419663	-0.3782127219804502	9.720455908818236	-0.11361332361028421	0.44518900892671837	1.42454861686268	-0.10848741640843337	0.010494752623688156	-1.1409295352323838	-0.046476761619190406	
1.737579746929506E12	-0.38706972676226353	9.734939759036145	0.15275580875647374	-0.3782127219804502	9.720455908818236	-0.11361332361028421	0.29352936223471027	1.5570647672685107	-0.25645842867776475	0.010494752623688156	-1.1409295352323838	-0.046476761619190406	
1.7375797469344688E12	-0.36273481085626375	9.783132530120483	0.12890277237336506	-0.38282833698169577	9.708458308338331	-0.11377945576509572	0.5037688294476614	1.739274474076528	0.15910480408531305	0.019490254872563718	-1.143928035982009	-0.04947526236881559	
1.7375797469394314E12	-0.36249387109481823	9.771084337349398	0.10480879622881085	-0.38282833698169577	9.708458308338331	-0.11377945576509572	0.581498035216215	1.6895809176743415	0.04315206796502267	0.019490254872563718	-1.143928035982009	-0.04947526236881559	
1.7375797469443943E12	-0.37454085916709534	9.74698795180723	0.10468832634808808	-0.3669876961611404	9.70605878824235	-0.0974974090330518	0.4269253066869439	1.7061454364750703	0.18648923942199402	0.022488755622188904	-1.1349325337331333	-0.04497751124437781	
1.737579746949357E12	-0.36249387109481823	9.759036144578314	0.10480879622881085	-0.3669876961611404	9.70605878824235	-0.0974974090330518	0.19736869092376227	2.1036938876925624	0.17124729353495036	0.022488755622188904	-1.1349325337331333	-0.04497751124437781	
1.7375797469543198E12	-0.37478179892854085	9.674698795180724	0.1287823024926423	-0.3692448186090919	9.677264547090582	-0.10011472774402018	-0.04845784577925552	1.8552261056816297	0.2516038734845104	0.037481259370314844	-1.1259370314842578	-0.037481259370314844	
1.7375797469592825E12	-0.3264733767587097	9.74698795180723	0.11721719394325628	-0.3692448186090919	9.677264547090582	-0.10011472774402018	-0.30902025777660685	1.7061454364750703	0.2741544147204077	0.037481259370314844	-1.1259370314842578	-0.037481259370314844	
1.737579746964245E12	-0.33827942506954123	9.734939759036145	0.09300274791797929	-0.36878067099950446	9.662867426514696	-0.12332210822339482	-0.24964799212093025	1.4079840980619511	0.46250212174080435	0.037481259370314844	-1.1244377811094453	-0.046476761619190406	
1.737579746969208E12	-0.3263529068779869	9.710843373493976	0.10517020587097917	-0.36878067099950446	9.662867426514696	-0.12332210822339482	-0.47860808010314937	1.6895809176743415	0.38760739775750913	0.037481259370314844	-1.1244377811094453	-0.046476761619190406	
1.7375797469741707E12	-0.36237340121409545	9.72289156626506	0.09276180815653375	-0.35931640757610434	9.6748650269946	-0.1346415149592176	-0.4943593109328523	1.7061454364750703	0.4313369125807872	0.031484257871064465	-1.136431784107946	-0.05247376311844078	
1.7375797469791335E12	-0.36213246145264993	9.72289156626506	0.06866783201197953	-0.35931640757610434	9.6748650269946	-0.1346415149592176	0.013658082290408179	1.9049196620838162	0.16558533910619583	0.031484257871064465	-1.136431784107946	-0.05247376311844078	
1.7375797469840962E12	-0.36237340121409545	9.72289156626506	0.09276180815653375	-0.36365909978506544	9.682063587282542	-0.14845378672825477	0.2103481052883271	2.020871293688918	0.4046994252254844	0.020989505247376312	-1.1454272863568216	-0.07196401799100449	
1.7375797469890588E12	-0.35020594326109555	9.734939759036145	0.0808352899649794	-0.36365909978506544	9.682063587282542	-0.14845378672825477	-0.1881766193312514	2.054000331290376	0.4409391153609723	0.020989505247376312	-1.1454272863568216	-0.07196401799100449	
1.7375797469940217E12	-0.32611196711654133	9.72289156626506	0.08107622972642495	-0.35609014092148705	9.70125974805039	-0.18048140658153683	-0.11190312642100134	1.938048699685274	0.47055766507103614	0.0239880059970015	-1.1394302848575713	-0.046476761619190406	
1.7375797469989844E12	-0.33755660578520463	9.771084337349398	0.020720819484316626	-0.35609014092148705	9.70125974805039	-0.18048140658153683	-0.28193130607047795	1.938048699685274	0.628046380401551	0.0239880059970015	-1.1394302848575713	-0.046476761619190406	
1.7375797470039473E12	-0.32611196711654133	9.734939759036145	0.08107622972642495	-0.34237351980914393	9.696460707858428	-0.17347181554741953	0.545726641216969	2.0043067748881893	0.5575043315955994	0.029985007496251874	-1.1334332833583207	-0.047976011994003	
1.73757974700891E12	-0.36201199157192715	9.74698795180723	0.05662084393970242	-0.34237351980914393	9.696460707858428	-0.17347181554741953	0.011049060765922207	1.6730163988736126	0.42648749155479315	0.029985007496251874	-1.1334332833583207	-0.047976011994003	
1.7375797470138726E12	-0.3017770512105416	9.74698795180723	0.05722319334331627	-0.33332727711920723	9.722855428914217	-0.16389018561007762	0.3783588228323125	1.7227099552757992	0.4489569204440978	0.013493253373313342	-1.1334332833583207	-0.05247376311844078	
1.7375797470188354E12	-0.3380384853080957	9.734939759036145	0.06890877177342507	-0.33332727711920723	9.722855428914217	-0.16389018561007762	-0.2333316998027277	1.5901938048699684	0.3622664580675639	0.013493253373313342	-1.1334332833583207	-0.05247376311844078	
1.737579747023798E12	-0.3380384853080957	9.734939759036145	0.06890877177342507	-0.31947611384295227	9.737252549490101	-0.16360770277155623	0.012707315460620497	1.1760808348517475	0.26066202208496403	0.02848575712143928	-1.1319340329835081	-0.046476761619190406	
1.737579747028761E12	-0.33827942506954123	9.771084337349398	0.09300274791797929	-0.31947611384295227	9.737252549490101	-0.16360770277155623	-0.0028943693936778073	1.1595163160510187	0.2894369393677807	0.02848575712143928	-1.1319340329835081	-0.046476761619190406	
1.7375797470337236E12	-0.3504468830225411	9.795180722891567	0.10492926610953363	-0.31536549543878495	9.737252549490101	-0.13819174076283172	-0.3232296574738972	0.9276130528408149	0.16370081630243466	0.03298350824587706	-1.1349325337331333	-0.043478260869565216	
1.7375797470386863E12	-0.314185448924987	9.795180722891567	0.09324368767942483	-0.31536549543878495	9.737252549490101	-0.13819174076283172	-0.2469644451669269	0.8944840152393573	0.1941474263404694	0.03298350824587706	-1.1349325337331333	-0.043478260869565216	
1.7375797470436492E12	-0.32611196711654133	9.795180722891567	0.08107622972642495	-0.33161743967999746	9.720455908818236	-0.13390861646202018	-0.43201103085498693	0.8944840152393573	0.32208317738230274	0.01649175412293853	-1.1394302848575713	-0.04497751124437781	
1.7375797470486118E12	-0.35032641314181834	9.759036144578314	0.09288227803725652	-0.33161743967999746	9.720455908818236	-0.13390861646202018	-0.32396082614436084	0.9276130528408149	0.23681768334880013	0.01649175412293853	-1.1394302848575713	-0.04497751124437781	
1.7375797470535747E12	-0.36213246145264993	9.74698795180723	0.06866783201197953	-0.33854302131812497	9.713257348530293	-0.13404985788128088	-0.35575409915129624	0.9441775716415437	0.3533578477483083	0.019490254872563718	-1.1304347826086956	-0.05247376311844078	
1.7375797470585374E12	-0.36201199157192715	9.72289156626506	0.05662084393970242	-0.33854302131812497	9.713257348530293	-0.13404985788128088	-0.3696125720410734	1.0435646844459168	0.20781156857900698	0.019490254872563718	-1.1304347826086956	-0.05247376311844078	
1.7375797470635E12	-0.3263529068779869	9.614457831325302	0.10517020587097917	-0.3632929636244173	9.696460707858428	-0.16676059476065877	-0.21742264239434048	1.4576776544641377	0.3027542853758535	0.026986506746626684	-1.1424287856071964	-0.047976011994003	
1.737579747068463E12	-0.3143059188057098	9.578313253012048	0.10529067575170194	-0.3632929636244173	9.696460707858428	-0.16676059476065877	-0.5420285189350561	1.523935729667053	0.6040770083601223	0.026986506746626684	-1.1424287856071964	-0.047976011994003	
1.7375797470734255E12	-0.4585083660308668	9.63855421686747	0.06770407296619735	-0.38855174099224854	9.686862627474504	-0.17402957856308982	-0.5083193022990118	1.3582905416597646	0.2959424810497164	0.026986506746626684	-1.1349325337331333	-0.06146926536731634	
1.7375797470783884E12	-0.48212046265252995	9.698795180722891	0.019275180915643376	-0.38855174099224854	9.686862627474504	-0.17402957856308982	-0.49054895324316156	1.623322842471426	0.05030114361171588	0.026986506746626684	-1.1349325337331333	-0.06146926536731634	
1.737579747083351E12	-0.4593516551959262	9.710843373493976	0.15203298947213711	-0.377514101525781	9.686862627474504	-0.1485443463437423	-0.32444755484566135	1.4079840980619511	0.28549055347885033	0.025487256371814093	-1.1229385307346327	-0.05397301349325337	
1.7375797470883137E12	-0.3876720761658774	9.771084337349398	0.21299074911785928	-0.377514101525781	9.686862627474504	-0.1485443463437423	-0.4319211052231962	1.4576776544641377	0.31309061420323137	0.025487256371814093	-1.1229385307346327	-0.05397301349325337	
1.7375797470932766E12	-0.38731066652370905	9.759036144578314	0.17684978490102796	-0.3889644838370785	9.6748650269946	-0.15339243632159666	-0.38584556321010904	1.4908066920655954	0.29971711733555273	0.02848575712143928	-1.12143928035982	-0.050974512743628186	
1.7375797470982393E12	-0.41032041374175837	9.74698795180723	0.06818595248908844	-0.3889644838370785	9.6748650269946	-0.15339243632159666	-0.00541512140702901	1.5073712108663242	0.5415121407029009	0.02848575712143928	-1.12143928035982	-0.050974512743628186	
1.7375797471032021E12	-0.3746613290478181	9.686746987951807	0.1167353144203652	-0.3936785900953211	9.694061187762447	-0.1486340056265583	-0.4199736076005602	1.4576776544641377	0.649734420086648	0.026986506746626684	-1.12143928035982	-0.04497751124437781	
1.7375797471081648E12	-0.36237340121409545	9.710843373493976	0.09276180815653375	-0.3936785900953211	9.694061187762447	-0.1486340056265583	0.21040275726997318	1.4742421732648665	0.39923422706087686	0.026986506746626684	-1.12143928035982	-0.04497751124437781	
1.7375797471131274E12	-0.3742999194056498	9.759036144578314	0.08059435020353387	-0.38259290452049893	9.684463107378523	-0.12555107882493766	0.1026317710622851	1.5736292860692396	0.4565778708005866	0.019490254872563718	-1.118440779610195	-0.043478260869565216	
1.7375797471180903E12	-0.37417944952492704	9.807228915662652	0.06854736213125676	-0.38259290452049893	9.684463107378523	-0.12555107882493766	0.11783781385135969	1.1595163160510187	0.4673671600401408	0.019490254872563718	-1.118440779610195	-0.043478260869565216	
1.737579747123053E12	-0.3386408347117095	9.710843373493976	0.1291437121348106	-0.3845376946128479	9.708458308338331	-0.14378501531603238	0.10194862989084376	1.0932582408481033	0.5248919879447211	0.0239880059970015	-1.1274362818590704	-0.04497751124437781	
1.7375797471280159E12	-0.32611196711654133	9.783132530120483	0.08107622972642495	-0.3845376946128479	9.708458308338331	-0.14378501531603238	0.07262145691561353	1.3085969852575783	0.3948221491737168	0.0239880059970015	-1.1274362818590704	-0.04497751124437781	
1.7375797471329785E12	-0.3981529557887585	9.807228915662652	0.0562594342975341	-0.3754871336503929	9.713257348530293	-0.13441929900460356	-0.07829874050265118	1.3582905416597646	0.17290620953004907	0.020989505247376312	-1.1319340329835081	-0.047976011994003	
1.7375797471379412E12	-0.2779240148274329	9.542168674698795	0.08155810924931603	-0.3754871336503929	9.713257348530293	-0.13441929900460356	0.013303843241583013	1.0601292032466456	0.20100924398871248	0.020989505247376312	-1.1319340329835081	-0.047976011994003	
1.737579747142904E12	-0.3144263886864326	9.614457831325302	0.11733766382397905	-0.3542443218941926	9.710857828434312	-0.15729891683771302	-0.1233158678433145	0.9773066092430014	0.08043823915533847	0.022488755622188904	-1.1274362818590704	-0.047976011994003	
1.7375797471478667E12	-0.5185023666308068	9.771084337349398	0.04300774741802928	-0.3542443218941926	9.710857828434312	-0.15729891683771302	0.06190179338867736	0.7288388272320688	-0.0646050662796805	0.022488755622188904	-1.1274362818590704	-0.047976011994003	
1.7375797471528296E12	-0.47019394446097557	9.759036144578314	0.031442638868643256	-0.3545268408476288	9.739652069586082	-0.1431729691659027	0.12330145787378087	0.6294517144276959	-0.07899724220197711	0.031484257871064465	-1.128935532233883	-0.05697151424287856	
1.7375797471577922E12	-0.3397250636382145	9.759036144578314	0.23756660478530459	-0.3545268408476288	9.739652069586082	-0.1431729691659027	-0.2299837241208682	0.28159681961239025	0.027468889881616436	0.031484257871064465	-1.128935532233883	-0.05697151424287856	
1.737579747162755E12	-0.35189252159121437	9.759036144578314	0.24949312297685894	-0.3289869839505341	9.727654469106177	-0.14995796182664428	-0.47114734253947804	0.19877422560874605	-0.3584663586096209	0.029985007496251874	-1.136431784107946	-0.06146926536731634	
1.7375797471677178E12	-0.338399894950264	9.783132530120483	0.1050497359902564	-0.3289869839505341	9.727654469106177	-0.14995796182664428	-0.19716350273397187	0.23190326321020371	-0.19176611251399175	0.029985007496251874	-1.136431784107946	-0.06146926536731634	
1.7375797471726804E12	-0.3262324369972641	9.795180722891567	0.09312321779870206	-0.3292204971795006	9.742051589682063	-0.1382823003783193	-0.16594025957750394	0.06625807520291535	-0.25130329186675504	0.026986506746626684	-1.1349325337331333	-0.046476761619190406	
1.7375797471776433E12	-0.3259914972358186	9.783132530120483	0.06902924165414784	-0.3292204971795006	9.742051589682063	-0.1382823003783193	-0.1370584122871757	-0.0828225940036442	-0.0767008846055547	0.026986506746626684	-1.1349325337331333	-0.046476761619190406	
1.737579747182606E12	-0.314185448924987	9.771084337349398	0.09324368767942483	-0.31494651508920646	9.718056388722255	-0.1591407582417549	-0.13486159403447284	-0.11595163160510186	-0.2963827098758394	0.035982008995502246	-1.136431784107946	-0.05397301349325337	
1.7375797471875686E12	-0.3017770512105416	9.759036144578314	0.05722319334331627	-0.31494651508920646	9.718056388722255	-0.1591407582417549	-0.2916294846957908	-0.0828225940036442	0.06647067478582248	0.035982008995502246	-1.136431784107946	-0.05397301349325337	
1.7375797471925315E12	-0.3263529068779869	9.734939759036145	0.10517020587097917	-0.3130521701454999	9.715656868626274	-0.13838456431853713	-0.3828932295934732	-0.24846778201093256	0.004483755671976158	0.031484257871064465	-1.1349325337331333	-0.04947526236881559	
1.7375797471974941E12	-0.3259914972358186	9.759036144578314	0.06902924165414784	-0.3130521701454999	9.715656868626274	-0.13838456431853713	-0.2941071775720876	-0.1656451880072884	0.3142399624154943	0.031484257871064465	-1.1349325337331333	-0.04947526236881559	
1.737579747202457E12	-0.338399894950264	9.734939759036145	0.1050497359902564	-0.32403936446332504	9.694061187762447	-0.16639205397000767	-0.47753028709922407	-0.31472585721384794	0.279828097364976	0.02848575712143928	-1.1244377811094453	-0.047976011994003	
1.7375797472074197E12	-0.3504468830225411	9.734939759036145	0.10492926610953363	-0.32403936446332504	9.694061187762447	-0.16639205397000767	-0.31174122961778067	-0.3312903760145768	0.5462515988377867	0.02848575712143928	-1.1244377811094453	-0.047976011994003	
1.7375797472123823E12	-0.33815895518881844	9.710843373493976	0.08095575984570218	-0.3309649461014525	9.686862627474504	-0.16653329538926837	-0.4779557393362547	-0.44724200761967864	0.322373321068042	0.029985007496251874	-1.1319340329835081	-0.046476761619190406	
1.7375797472173452E12	-0.35020594326109555	9.674698795180724	0.0808352899649794	-0.3309649461014525	9.686862627474504	-0.16653329538926837	-0.35587929843323163	-0.7288388272320688	0.3658777759418434	0.029985007496251874	-1.1319340329835081	-0.046476761619190406	
1.7375797472223079E12	-0.34996500349965004	9.698795180722891	0.05674131382042519	-0.3537748963959717	9.670065986802639	-0.1807701917487592	-0.12898801229683798	-0.7950969024349842	0.6476526845076862	0.01199400299850075	-1.1229385307346327	-0.050974512743628186	
1.7375797472272708E12	-0.3500854733803728	9.698795180722891	0.0687883018927023	-0.3537748963959717	9.670065986802639	-0.1807701917487592	-0.3910558207721711	-0.513500082822594	0.8207428735417628	0.01199400299850075	-1.1229385307346327	-0.050974512743628186	
1.7375797472322334E12	-0.35020594326109555	9.710843373493976	0.0808352899649794	-0.35164943726358655	9.665266946610677	-0.1715697072594703	-0.2843233757890356	-0.46380652642040743	0.8672533522573123	0.01649175412293853	-1.143928035982009	-0.047976011994003	
1.737579747237196E12	-0.3739385097634815	9.72289156626506	0.04445338598670253	-0.35164943726358655	9.665266946610677	-0.1715697072594703	-0.3309523864460308	-0.811661421235713	0.935973713515794	0.01649175412293853	-1.143928035982009	-0.047976011994003	
1.737579747242159E12	-0.33815895518881844	9.74698795180723	0.08095575984570218	-0.35132846836294757	9.6748650269946	-0.1876181522914228	-0.5599008815836584	-0.6460162332284247	0.8599197050733396	0.022488755622188904	-1.1394302848575713	-0.05547226386806597	
1.7375797472471216E12	-0.34996500349965004	9.759036144578314	0.05674131382042519	-0.35132846836294757	9.6748650269946	-0.1876181522914228	-0.46626427452737346	-0.811661421235713	0.6846204083269329	0.022488755622188904	-1.1394302848575713	-0.05547226386806597	
1.7375797472520845E12	-0.37405897964420426	9.698795180722891	0.05650037405897964	-0.3649557145713877	9.694061187762447	-0.19909648852068462	-0.6672149492618529	-0.7288388272320688	0.8715714958636941	0.031484257871064465	-1.1244377811094453	-0.06296851574212893	
1.737579747257047E12	-0.3863469074779269	9.734939759036145	0.0804738803228111	-0.3649557145713877	9.694061187762447	-0.19909648852068462	-0.730482529877043	-0.9607420904422725	1.0727552847946578	0.031484257871064465	-1.1244377811094453	-0.06296851574212893	
1.7375797472620098E12	-0.36225293133337266	9.674698795180724	0.08071482008425664	-0.3601109046136939	9.713257348530293	-0.21039010418828502	-0.5755075347999244	-0.612887195626967	0.8891914585529387	0.026986506746626684	-1.1484257871064467	-0.04947526236881559	
1.7375797472669727E12	-0.34996500349965004	9.650602409638555	0.05674131382042519	-0.3601109046136939	9.713257348530293	-0.21039010418828502	-0.5894824312519874	-0.811661421235713	0.7552875356122155	0.026986506746626684	-1.1484257871064467	-0.04947526236881559	
1.7375797472719353E12	-0.4224878716947582	9.74698795180723	0.08011247068064278	-0.37493553036913285	9.722855428914217	-0.1619994630676057	-0.5304307871156473	-0.8282259400364419	0.9756973945662591	0.01649175412293853	-1.1499250374812593	-0.047976011994003	
1.7375797472768982E12	-0.47031441434169835	9.783132530120483	0.043489626940920366	-0.37493553036913285	9.722855428914217	-0.1619994630676057	-0.6047883363967883	-0.8613549776378996	0.7544844819452976	0.01649175412293853	-1.1499250374812593	-0.047976011994003	
1.7375797472818608E12	-0.39863483531164956	9.867469879518072	0.10444738658664254	-0.38657377884133015	9.727654469106177	-0.15745424500046573	-0.20302825229995444	-1.0766937220473745	0.39470884408426576	0.022488755622188904	-1.1529235382308844	-0.047976011994003	
1.7375797472868235E12	-0.3750227386899864	9.771084337349398	0.15287627863719652	-0.38657377884133015	9.727654469106177	-0.15745424500046573	-0.2976769026502969	-1.027000165645188	0.6712124702364247	0.022488755622188904	-1.1529235382308844	-0.047976011994003	
1.7375797472917864E12	-0.32611196711654133	9.734939759036145	0.08107622972642495	-0.3913292138951211	9.722855428914217	-0.15062937452800973	-0.44828641527316077	-1.1595163160510187	0.41822805105267513	0.0239880059970015	-1.143928035982009	-0.047976011994003	
1.737579747296749E12	-0.36213246145264993	9.710843373493976	0.06866783201197953	-0.3913292138951211	9.722855428914217	-0.15062937452800973	-0.496553807176983	-1.2092098724532052	0.650786536993856	0.0239880059970015	-1.143928035982009	-0.047976011994003	
1.737579747301712E12	-0.3859854978357586	9.807228915662652	0.04433291610597976	-0.3887429658095516	9.720455908818236	-0.16446833769794086	-0.47934355124766465	-1.1926453536524764	0.4611545122090353	0.020989505247376312	-1.1529235382308844	-0.047976011994003	
1.737579747396004E12	-0.4095975944574217	9.819277108433736	-0.004095975944574217	-0.4506239269928966	9.715656868626274	-0.18820318846140555	0.30762399449037087	2.020871293688918	-0.13452808609680786	0.005997001499250375	-1.1424287856071964	-0.047976011994003	
1.7375797474009668E12	-0.3976710762658674	9.795180722891567	0.008071482008425663	-0.42024165917839595	9.73485302939412	-0.20616184477535143	-0.06103830583728472	2.335597150902766	-0.021743688859582878	0.022488755622188904	-1.1244377811094453	-0.05547226386806597	
1.7375797474059294E12	-0.49440839048625257	9.795180722891567	0.043248687179474825	-0.42024165917839595	9.73485302939412	-0.20616184477535143	-0.22772960753312363	2.6006294517144277	-0.19794276889284246	0.022488755622188904	-1.1244377811094453	-0.05547226386806597	
1.737579747410892E12	-0.5900614757801328	9.795180722891567	-0.029997000299970003	-0.4045898441348556	9.754049190161966	-0.18043850919255472	-0.3978940841927574	2.5012423389100547	-0.026824352546619447	0.02848575712143928	-1.1229385307346327	-0.05247376311844078	
1.737579747415855E12	-0.4345348597670353	9.759036144578314	0.07999200079992	-0.4045898441348556	9.754049190161966	-0.18043850919255472	-0.6733684153903419	2.749710120920987	-0.04447545943441676	0.02848575712143928	-1.1229385307346327	-0.05247376311844078	
1.7375797474208176E12	-0.4344143898863126	9.734939759036145	0.06794501272764289	-0.3908713037902822	9.739652069586082	-0.17352487976995434	-0.5848648941132061	2.733145602120258	0.29353382173408255	0.019490254872563718	-1.1409295352323838	-0.05397301349325337	
1.7375797474257805E12	-0.36201199157192715	9.819277108433736	0.05662084393970242	-0.3908713037902822	9.739652069586082	-0.17352487976995434	-0.9187645314943612	2.584064932913699	-0.007160939384705184	0.019490254872563718	-1.1409295352323838	-0.05397301349325337	
1.7375797474307432E12	-0.4105613535032039	9.72289156626506	0.09227992863364266	-0.37900002189717596	9.722855428914217	-0.18972176888254014	-0.7206270762414184	2.84909723372536	0.08720992123219998	0.01649175412293853	-1.12143928035982	-0.05847076461769115	
1.7375797474357058E12	-0.37454085916709534	9.710843373493976	0.10468832634808808	-0.37900002189717596	9.722855428914217	-0.18972176888254014	-0.8585612348124946	2.749710120920987	0.09808366501668966	0.01649175412293853	-1.12143928035982	-0.05847076461769115	
1.7375797474406687E12	-0.3386408347117095	9.63855421686747	0.1291437121348106	-0.3680983640187931	9.710857828434312	-0.15743745725895902	-0.489513229143551	2.965048865330462	-0.05327126634934114	0.02848575712143928	-1.1499250374812593	-0.05397301349325337	
1.7375797474456313E12	-0.35032641314181834	9.72289156626506	0.09288227803725652	-0.3680983640187931	9.710857828434312	-0.15743745725895902	-0.6595679067235227	3.2300811661421234	0.10686724203068047	0.02848575712143928	-1.1499250374812593	-0.05397301349325337	
1.7375797474505942E12	-0.36237340121409545	9.72289156626506	0.09276180815653375	-0.34034127404512243	9.696460707858428	-0.15961066263995233	-0.8422681281834752	3.163823090939208	1.6657026176762797E-4	0.0239880059970015	-1.1349325337331333	-0.046476761619190406	
1.737579747455557E12	-0.338399894950264	9.72289156626506	0.1050497359902564	-0.34034127404512243	9.696460707858428	-0.15961066263995233	-0.660309012117922	3.3294682789464964	0.18097778147061097	0.0239880059970015	-1.1349325337331333	-0.046476761619190406	
1.7375797474605195E12	-0.36249387109481823	9.698795180722891	0.10480879622881085	-0.33789340658792555	9.694061187762447	-0.16653059439125367	-0.5052743966971895	3.0810004969355638	-0.00854807913249805	0.01649175412293853	-1.1319340329835081	-0.046476761619190406	
1.7375797474654824E12	-0.35032641314181834	9.698795180722891	0.09288227803725652	-0.33789340658792555	9.694061187762447	-0.16653059439125367	-0.09099512900659631	2.9981779029319195	-0.08884850822245233	0.01649175412293853	-1.1319340329835081	-0.046476761619190406	
1.737579747470445E12	-0.35020594326109555	9.698795180722891	0.0808352899649794	-0.3221877877393396	9.6748650269946	-0.1434974490607346	-0.35024143739711305	2.84909723372536	-0.1979083276700129	0.02848575712143928	-1.1499250374812593	-0.05697151424287856	
1.737579747475408E12	-0.2417830506106016	9.734939759036145	0.08191951889148434	-0.3221877877393396	9.6748650269946	-0.1434974490607346	0.14085816736501455	3.0313069405333772	-0.3032746231783298	0.02848575712143928	-1.1499250374812593	-0.05697151424287856	
1.7375797474803706E12	-0.3371951961430363	9.771084337349398	-0.0154201447325147	-0.33308752638549216	9.677264547090582	-0.17587772229583262	-0.2275701248337834	2.468113301308597	-0.21389103882686888	0.019490254872563718	-1.1349325337331333	-0.043478260869565216	
1.7375797474853333E12	-0.3370747262623135	9.807228915662652	-0.02746713280479181	-0.33308752638549216	9.677264547090582	-0.17587772229583262	0.13826073868512015	2.6834520457180715	-0.043531755188891616	0.019490254872563718	-1.1349325337331333	-0.043478260869565216	
1.7375797474902961E12	-0.2898505330189873	9.72289156626506	0.06939065129631615	-0.3240374452310947	9.684463107378523	-0.1664880155815246	0.013882648811700031	2.584064932913699	0.1431286869770106	0.01199400299850075	-1.136431784107946	-0.04947526236881559	
1.7375797474952588E12	-0.26575655687443306	9.72289156626506	0.06963159105776169	-0.3240374452310947	9.684463107378523	-0.1664880155815246	-0.30547537450823664	2.8159681961239023	-0.08033391211661035	0.01199400299850075	-1.136431784107946	-0.04947526236881559	
1.7375797475002217E12	-0.32538914783220474	9.72289156626506	0.00879430129276229	-0.3067697500990346	9.696460707858428	-0.22155868442471288	-0.4133942505706734	2.931919827729004	-0.008201282902033324	0.020989505247376312	-1.1334332833583207	-0.05697151424287856	
1.7375797475051843E12	-0.3140649790442642	9.626506024096386	0.08119669960714772	-0.3067697500990346	9.696460707858428	-0.22155868442471288	-0.2583480423053493	2.56750041411297	-0.19888642796430153	0.020989505247376312	-1.1334332833583207	-0.05697151424287856	
1.737579747510147E12	-0.32611196711654133	9.698795180722891	0.08107622972642495	-0.3004918639588763	9.713257348530293	-0.18903266810699637	-0.22593505582826826	2.2030810004969354	-0.3773979393783796	0.010494752623688156	-1.143928035982009	-0.047976011994003	
1.7375797475151099E12	-0.3262324369972641	9.698795180722891	0.09312321779870206	-0.3004918639588763	9.713257348530293	-0.18903266810699637	0.4934348712620133	1.6895809176743415	-0.33889294549689003	0.010494752623688156	-1.143928035982009	-0.047976011994003	
1.7375797475200725E12	-0.3985143654309268	9.72289156626506	0.09240039851436543	-0.2923153146024931	9.70605878824235	-0.13596637149197516	0.6904405474173009	1.5736292860692396	-0.13134417511446603	0.01649175412293853	-1.128935532233883	-0.05397301349325337	
1.7375797475250354E12	-0.32779854544666015	9.759036144578314	0.24973406273830448	-0.2923153146024931	9.70605878824235	-0.13596637149197516	1.0601264838836058	1.2589034288553917	-0.34649218621660266	0.01649175412293853	-1.128935532233883	-0.05397301349325337	
1.737579747529998E12	-0.29081429206476944	9.783132530120483	0.16576655587453304	-0.31304737206492406	9.691661667666466	-0.13862446834732947	1.1524122087992812	1.4411131356634088	-0.38670326890207385	0.020989505247376312	-1.1274362818590704	-0.05697151424287856	
1.7375797475349607E12	-0.3139445091635415	9.819277108433736	0.06914971153487061	-0.31304737206492406	9.691661667666466	-0.13862446834732947	1.5169683717277487	1.242338910054663	-0.08887392622049294	0.020989505247376312	-1.1274362818590704	-0.05697151424287856	
1.7375797475399236E12	-0.3380384853080957	9.867469879518072	0.06890877177342507	-0.28497219203895985	9.70125974805039	-0.15670217634299993	1.301466146208115	1.0435646844459168	0.021838671684666522	0.031484257871064465	-1.1394302848575713	-0.046476761619190406	
1.7375797475448862E12	-0.2421444602527699	9.686746987951807	0.11806048310831567	-0.28497219203895985	9.70125974805039	-0.15670217634299993	1.150579071202969	0.7619678648335265	-0.20338950927088453	0.031484257871064465	-1.1394302848575713	-0.046476761619190406	
1.737579747549849E12	-0.16998300169983002	9.63855421686747	0.13083029046492942	-0.2686289536616141	9.722855428914217	-0.16555000745047282	1.2710403165483486	0.5466291204240517	0.0016345013672975917	0.035982008995502246	-1.1424287856071964	-0.05547226386806597	
1.7375797475548118E12	-0.3017770512105416	9.734939759036145	0.05722319334331627	-0.2686289536616141	9.722855428914217	-0.16555000745047282	0.7487389981982803	0.31472585721384794	0.16438501937565358	0.035982008995502246	-1.1424287856071964	-0.05547226386806597	
1.7375797475597744E12	-0.36153011204903607	9.819277108433736	0.008432891650593976	-0.24563545547871327	9.744451109778044	-0.16049050551006325	0.7210882972449636	-0.14908066920655955	-0.1333320215867158	0.025487256371814093	-1.1409295352323838	-0.046476761619190406	
1.7375797475647373E12	-0.2904528824226011	9.795180722891567	0.1296255916577017	-0.24563545547871327	9.744451109778044	-0.16049050551006325	0.4895523101513774	-0.4306774888189498	0.0493631655667029	0.025487256371814093	-1.1409295352323838	-0.046476761619190406	
1.7375797475697E12	-0.23057935170338387	9.831325301204819	0.16636890527814688	-0.24554799980704073	9.768446310737852	-0.16486328909369075	0.5955983017217596	-0.8282259400364419	0.16451898555757521	0.026986506746626684	-1.1244377811094453	-0.05247376311844078	
1.7375797475746628E12	-0.25419144832504703	9.843373493975903	0.1179400132275929	-0.24554799980704073	9.768446310737852	-0.16486328909369075	0.48492748264205604	-0.9773066092430014	0.5118459164988344	0.026986506746626684	-1.1244377811094453	-0.05247376311844078	
1.7375797475796255E12	-0.25431191820576976	9.807228915662652	0.12998700129987	-0.2591185633620898	9.73485302939412	-0.17917575799250554	0.273215741364242	-1.0601292032466456	0.2435100902220525	0.019490254872563718	-1.1394302848575713	-0.05697151424287856	
1.7375797475845881E12	-0.22913371313471062	9.771084337349398	0.021805048410821568	-0.2591185633620898	9.73485302939412	-0.17917575799250554	-0.08014396605992453	-0.6625807520291536	0.3574287652573837	0.019490254872563718	-1.1394302848575713	-0.05697151424287856	
1.737579747589551E12	-0.20479879722871086	9.759036144578314	-0.0020479879722871087	-0.2472444026206381	9.70365926814637	-0.19551658952236672	-0.6322911474953562	-1.3417260228590357	0.4419784555080609	0.019490254872563718	-1.128935532233883	-0.046476761619190406	
1.7375797475945137E12	-0.22889277337326508	9.831325301204819	-0.002288927733732651	-0.2472444026206381	9.70365926814637	-0.19551658952236672	-0.4317973912903704	-1.242338910054663	0.30071922092065484	0.019490254872563718	-1.128935532233883	-0.046476761619190406	
1.737579747936943E12	-0.37237240131408544	9.66265060240964	-0.11215745895289989	-0.35502468886432353	9.665266946610677	-0.3492274505482574	-1.956009565974131	11.462647010104355	1.1139734427423624	0.019490254872563718	-1.136431784107946	-0.04947526236881559	
1.7375797479419058E12	-0.39658684733936245	9.710843373493976	-0.10035141064206832	-0.39694575427790935	9.61487702459508	-0.3316961198227799	-1.3872673688339288	10.998840483683948	0.901315750161638	0.019490254872563718	-1.136431784107946	-0.04947526236881559	
1.7375797479468687E12	-0.4329687513176393	9.66265060240964	-0.07661884413968242	-0.39694575427790935	9.61487702459508	-0.3316961198227799	-0.9930016398302549	11.147921152890508	1.2909756216166057	0.026986506746626684	-1.1379310344827587	-0.047976011994003	
1.7375797479518313E12	-0.44489526950919367	9.626506024096386	-0.08878630209268229	-0.4314348020321166	9.576484703059387	-0.3393453487405924	-0.5139576756497694	10.949146927281761	0.8597798161254797	0.026986506746626684	-1.1379310344827587	-0.047976011994003	
1.737579747956794E12	-0.44489526950919367	9.614457831325302	-0.08878630209268229	-0.4314348020321166	9.576484703059387	-0.3393453487405924	-0.2893145475064128	11.429517972502898	1.3663705239950263	0.025487256371814093	-1.1349325337331333	-0.05697151424287856	
1.7375797479617568E12	-0.444172450224857	9.63855421686747	-0.16106823052634495	-0.4489891187563424	9.600479904019195	-0.38541704139765987	-0.07391715270447341	11.214179228093423	1.2661409978592857	0.025487256371814093	-1.1349325337331333	-0.05697151424287856	
1.7375797479667195E12	-0.456821787700748	9.493975903614459	-0.10095376004568218	-0.4489891187563424	9.600479904019195	-0.38541704139765987	-0.4123748776523423	11.313566340897797	1.4212549934118766	0.02848575712143928	-1.1319340329835081	-0.05397301349325337	
1.7375797479716824E12	-0.4567013178200252	9.63855421686747	-0.1130007481179593	-0.4418843075023515	9.634073185362926	-0.39423728077156733	-0.5853591982761365	11.628292198111644	1.8743578061741426	0.03298350824587706	-1.1319340329835081	-0.06146926536731634	
1.737579747976645E12	-0.46862783601157953	9.72289156626506	-0.12516820607095916	-0.4418843075023515	9.634073185362926	-0.39423728077156733	-1.1219725958041635	11.644856716912374	1.936922673831364	0.03298350824587706	-1.1319340329835081	-0.06146926536731634	
1.7375797479816077E12	-0.40863383541163956	9.710843373493976	-0.10047188052279109	-0.40827167039450407	9.67246550689862	-0.3427675195357663	-1.0443747186837993	11.446082491303628	1.8341028025299995	0.01649175412293853	-1.1424287856071964	-0.04497751124437781	
1.7375797479865706E12	-0.3609277626454222	9.759036144578314	-0.05180204871079157	-0.40827167039450407	9.67246550689862	-0.3427675195357663	-1.2276118475811004	10.899453370879575	1.781092874495948	0.01649175412293853	-1.1424287856071964	-0.04497751124437781	
1.7375797479915332E12	-0.361048232526145	9.710843373493976	-0.03975506063851446	-0.37262630771457744	9.708458308338331	-0.27746059579537724	-1.1034997272453706	10.733808182872286	1.6210293860990852	0.026986506746626684	-1.1259370314842578	-0.05697151424287856	
1.737579747996496E12	-0.39694825698153074	9.831325301204819	-0.06421044642523699	-0.37262630771457744	9.708458308338331	-0.27746059579537724	-1.239320368712911	9.97184031803876	1.4205514195299849	0.026986506746626684	-1.1259370314842578	-0.05697151424287856	
1.7375797480014587E12	-0.39706872686225353	9.879518072289157	-0.052163458352959886	-0.3310242919694004	9.739652069586082	-0.2790394431004191	-1.394311924996589	9.789630611230743	1.6057713664276454	0.010494752623688156	-1.143928035982009	-0.050974512743628186	
1.7375797480064214E12	-0.3371951961430363	9.891566265060241	-0.0154201447325147	-0.3310242919694004	9.739652069586082	-0.2790394431004191	-1.6268847971940716	9.640549942024183	1.892155063970729	0.010494752623688156	-1.143928035982009	-0.050974512743628186	
1.7375797480113843E12	-0.28888677397320506	9.795180722891567	-0.026985253281900726	-0.3164379775235038	9.768446310737852	-0.3155145187439811	-2.0581033829143247	9.922146761636574	2.134993727879682	0.01199400299850075	-1.143928035982009	-0.05247376311844078	
1.737579748016347E12	-0.25202299047203713	9.74698795180723	-0.09890577207339507	-0.3164379775235038	9.768446310737852	-0.3155145187439811	-2.778470448212761	10.170614543647506	2.1962025548135973	0.01199400299850075	-1.143928035982009	-0.05247376311844078	
1.7375797480213098E12	-0.31105323202619495	9.771084337349398	-0.21997800219978003	-0.29902902291472555	9.766046790641871	-0.3776481614230746	-3.458760866837223	10.485340400861354	2.8439274187912194	0.019490254872563718	-1.1409295352323838	-0.050974512743628186	
1.7375797480262725E12	-0.31033041274185835	9.819277108433736	-0.2922599306334427	-0.29902902291472555	9.766046790641871	-0.3776481614230746	-4.668377838094916	11.065098558886863	2.8255326609463207	0.019490254872563718	-1.1409295352323838	-0.050974512743628186	
1.737579748031235E12	-0.33490626840930365	9.819277108433736	-0.2443129181057798	-0.3001353724998601	9.749250149970004	-0.4378041232748949	-5.945028032399777	11.048534040086135	3.384885935230414	0.013493253373313342	-1.1409295352323838	-0.05247376311844078	
1.737579748036198E12	-0.2987653041924723	9.698795180722891	-0.24395150846361147	-0.3001353724998601	9.749250149970004	-0.4378041232748949	-6.357618740107496	11.793937386118932	3.296330366032858	0.013493253373313342	-1.1409295352323838	-0.05247376311844078	
1.7375797480411606E12	-0.33490626840930365	9.759036144578314	-0.2443129181057798	-0.30604328401490966	9.727654469106177	-0.4888288708480493	-6.945457326634318	12.092098724532052	3.8872334291286057	0.0074962518740629685	-1.118440779610195	-0.043478260869565216	
1.7375797480461235E12	-0.31081229226474943	9.771084337349398	-0.24407197834433425	-0.30604328401490966	9.727654469106177	-0.4888288708480493	-7.298498068659804	12.224614874937883	3.9692555642958838	0.0074962518740629685	-1.118440779610195	-0.043478260869565216	
1.7375797480510862E12	-0.34743513600447185	9.66265060240964	-0.1962454356973941	-0.3412708415951617	9.691661667666466	-0.4595526084636238	-6.838432414182997	12.141792280934238	3.904497161025609	0.01649175412293853	-1.12143928035982	-0.05247376311844078	
1.7375797480560488E12	-0.4198375343188573	9.66265060240964	-0.18492126690945362	-0.3412708415951617	9.691661667666466	-0.4595526084636238	-6.977089460821258	11.959582574126221	3.987659711528493	0.01649175412293853	-1.12143928035982	-0.05247376311844078	
1.7375797480610117E12	-0.41947612467668893	9.674698795180724	-0.22106223112628495	-0.36458818752704714	9.6748650269946	-0.4484197229548055	-6.65554621209321	11.810501904919661	3.9925997698109885	0.019490254872563718	-1.1319340329835081	-0.043478260869565216	
1.7375797480659744E12	-0.3833351604598576	9.698795180722891	-0.22070082148411665	-0.36458818752704714	9.6748650269946	-0.4484197229548055	-5.875095585916505	11.462647010104355	4.048609127638235	0.019490254872563718	-1.1319340329835081	-0.043478260869565216	
1.7375797480709373E12	-0.3834556303405804	9.674698795180724	-0.20865383341183955	-0.3854956361408808	9.61487702459508	-0.44230826224002556	-5.416327817719318	11.197614709292694	4.113639352329882	0.022488755622188904	-1.12143928035982	-0.041979010494752625	
1.7375797480759E12	-0.37152911214902606	9.710843373493976	-0.19648637545883965	-0.3854956361408808	9.61487702459508	-0.44230826224002556	-4.882946467427234	11.330130859698524	4.374279208267016	0.022488755622188904	-1.12143928035982	-0.041979010494752625	
1.7375797480808625E12	-0.3832146905791349	9.72289156626506	-0.23274780955639376	-0.4021603232269232	9.586082783443311	-0.41738799569772084	-4.351285143410488	11.11479211528905	4.80692169173795	0.019490254872563718	-1.1409295352323838	-0.04497751124437781	
1.7375797480858254E12	-0.33526767805147195	9.63855421686747	-0.20817195388894846	-0.4021603232269232	9.586082783443311	-0.41738799569772084	-3.906686532898479	11.131356634089778	4.757474116800377	0.019490254872563718	-1.1409295352323838	-0.04497751124437781	
1.737579748090788E12	-0.3355086178129175	9.686746987951807	-0.18407797774439424	-0.38609240668214984	9.600479904019195	-0.41246973517657193	-3.523186838800107	11.164485671691237	4.692343910638584	0.01649175412293853	-1.1334332833583207	-0.04497751124437781	
1.737579748095751E12	-0.37152911214902606	9.74698795180723	-0.19648637545883965	-0.38609240668214984	9.600479904019195	-0.41246973517657193	-3.6307751566192716	10.899453370879575	4.73142071552595	0.01649175412293853	-1.1334332833583207	-0.04497751124437781	
1.7375797481007136E12	-0.33538814793219474	9.66265060240964	-0.19612496581667135	-0.3679038290855673	9.634073185362926	-0.3981110861373418	-3.3695698454625918	10.468775882060626	4.644580258357164	0.01199400299850075	-1.1514242878560719	-0.038980509745127435	
1.7375797481056763E12	-0.34815795528880844	9.698795180722891	-0.12396350726373145	-0.3679038290855673	9.634073185362926	-0.3981110861373418	-3.277099796037737	10.27000165645188	4.585936724753753	0.01199400299850075	-1.1514242878560719	-0.038980509745127435	
1.7375797481106392E12	-0.3729747507176993	9.66265060240964	-0.051922518591514345	-0.36254991989206564	9.658068386322734	-0.31938622248678905	-3.121744559097668	9.739937054828557	4.364348712216997	0.0074962518740629685	-1.136431784107946	-0.04497751124437781	
1.7375797481156018E12	-0.3488807745731451	9.710843373493976	-0.0516815788300688	-0.36254991989206564	9.658068386322734	-0.31938622248678905	-2.521622948342969	9.011098227596488	4.076536794480671	0.0074962518740629685	-1.136431784107946	-0.04497751124437781	
1.7375797481205645E12	-0.3491217143345906	9.734939759036145	-0.027587602685514582	-0.34938922033350084	9.665266946610677	-0.2845805537637565	-2.474012199680093	8.315388437965877	3.9096426326341187	0.0239880059970015	-1.1379310344827587	-0.041979010494752625	
1.7375797481255273E12	-0.3612891722875905	9.783132530120483	-0.015661084493960243	-0.34938922033350084	9.665266946610677	-0.2845805537637565	-1.6617103362734953	7.371210866324333	3.84331540376606	0.0239880059970015	-1.1379310344827587	-0.041979010494752625	
1.73757974813049E12	-0.34948312397675896	9.771084337349398	0.008553361531316746	-0.37087274243953144	9.718056388722255	-0.2496654184391336	-1.6135461189667113	6.99022693390757	3.621074377528704	0.010494752623688156	-1.1334332833583207	-0.05847076461769115	
1.737579748135453E12	-0.3493626540960362	9.783132530120483	-0.003493626540960362	-0.37087274243953144	9.718056388722255	-0.2496654184391336	-1.3381832429694447	6.393904257081331	3.649871004448297	0.010494752623688156	-1.1334332833583207	-0.05847076461769115	
1.7375797481404155E12	-0.2893686534960962	9.783132530120483	0.021202699007207712	-0.31605478390657127	9.710857828434312	-0.21920075848205825	-1.309924916506944	5.168129865827398	3.886825494492242	0.013493253373313342	-1.1424287856071964	-0.043478260869565216	
1.7375797481453782E12	-0.3267143165201552	9.674698795180724	0.1413111700878105	-0.31605478390657127	9.710857828434312	-0.21920075848205825	-0.8169810764202827	4.455855557396057	3.5970356665305623	0.013493253373313342	-1.1424287856071964	-0.043478260869565216	
1.737579748150341E12	-0.24274680965638376	9.759036144578314	0.17829542346970123	-0.284795841271442	9.742051589682063	-0.16551971471889265	-0.4476427545201794	3.2300811661421234	3.416649112048566	0.014992503748125937	-1.1379310344827587	-0.047976011994003	
1.7375797481553037E12	-0.24250586989493822	9.819277108433736	0.154201447325147	-0.284795841271442	9.742051589682063	-0.16551971471889265	-0.3256529270076351	2.352161669703495	3.4688149059702504	0.014992503748125937	-1.1379310344827587	-0.047976011994003	
1.7375797481602666E12	-0.2309407613455522	9.66265060240964	0.2025098694949782	-0.2448539132586785	9.770845830833833	-0.08409417540325655	0.40948976048087665	1.6067583236706973	3.4614374281757376	0.01649175412293853	-1.1349325337331333	-0.043478260869565216	
1.7375797481652292E12	-0.3150287380900464	9.759036144578314	0.17757260418536458	-0.2448539132586785	9.770845830833833	-0.08409417540325655	0.9885775086513187	1.0766937220473745	3.745618200718057	0.01649175412293853	-1.1349325337331333	-0.043478260869565216	
1.737579748170192E12	-0.23057935170338387	9.783132530120483	0.16636890527814688	-0.24046941244611153	9.785242951409717	-0.0723723338145162	1.250020635294538	1.1926453536524764	3.634996194895333	0.019490254872563718	-1.12143928035982	-0.046476761619190406	
1.7375797481751548E12	-0.2916575812298288	9.891566265060241	0.2500954723804728	-0.24046941244611153	9.785242951409717	-0.0723723338145162	2.185735411775235	1.225774391253934	3.4785262037935025	0.019490254872563718	-1.12143928035982	-0.046476761619190406	
1.7375797481801174E12	-0.2549142676093836	9.807228915662652	0.19022194166125556	-0.2363107479335897	9.775644871025793	-0.049358677223518554	2.690329808770749	2.020871293688918	3.5550742530935824	0.01649175412293853	-1.1424287856071964	-0.04497751124437781	
1.7375797481850803E12	-0.15938165219622616	9.614457831325302	0.2755146172129775	-0.2363107479335897	9.775644871025793	-0.049358677223518554	3.732929888451298	2.037435812489647	3.429828919035651	0.01649175412293853	-1.1424287856071964	-0.04497751124437781	
1.737579748190043E12	-0.18323468857933484	9.771084337349398	0.25117970130697775	-0.19553181883778442	9.770845830833833	-0.00978319205997033	4.028875171981665	2.832532714924631	2.9317783607921846	0.010494752623688156	-1.1484257871064467	-0.04497751124437781	
1.7375797481950056E12	-0.19564308629378024	9.783132530120483	0.2872001956430863	-0.19553181883778442	9.770845830833833	-0.00978319205997033	4.217099152924022	3.2300811661421234	2.4861030843206033	0.010494752623688156	-1.1484257871064467	-0.04497751124437781	
1.7375797481999685E12	-0.11179604931073157	9.74698795180723	0.3362314370972541	-0.2013424143457409	9.737252549490101	0.0497997011207631	4.6966568388526735	3.743581248964717	2.003535104012934	0.017991004497751123	-1.143928035982009	-0.04497751124437781	
1.7375797482049312E12	-0.12601149523601857	9.72289156626506	0.5529567525175193	-0.2013424143457409	9.737252549490101	0.0497997011207631	4.93157773139892	3.8098393241676325	1.48234937159351	0.017991004497751123	-1.143928035982009	-0.04497751124437781	
1.737579748209894E12	-0.1130007481179593	9.530120481927712	0.4567013178200252	-0.15463878045287058	9.670065986802639	0.1395602697566926	5.180187677411667	4.008613549776379	1.1236518606709789	0.014992503748125937	-1.1409295352323838	-0.046476761619190406	
1.7375797482148567E12	-0.1487803026926223	9.698795180722891	0.4201989439610256	-0.15463878045287058	9.670065986802639	0.1395602697566926	6.08466099340868	4.389597482193142	1.028540781643447	0.014992503748125937	-1.1409295352323838	-0.046476761619190406	
1.7375797482198193E12	-0.16106823052634495	9.686746987951807	0.444172450224857	-0.1004185520772947	9.653269346130774	0.19991143758298002	6.49333038334276	4.836839489812821	1.5092281282048838	0.025487256371814093	-1.1469265367316341	-0.04497751124437781	
1.7375797482247822E12	0.008312421769871205	9.710843373493976	0.3735771001213132	-0.1004185520772947	9.653269346130774	0.19991143758298002	6.596623270891588	5.648500911048534	1.8996943503510462	0.025487256371814093	-1.1469265367316341	-0.04497751124437781	
1.7375797482297449E12	0.1050497359902564	9.72289156626506	0.338399894950264	0.030032295675941924	9.686862627474504	0.14388175199967057	6.840535520086154	6.029484843465297	2.0107665212467896	0.020989505247376312	-1.1484257871064467	-0.05247376311844078	
1.7375797482347078E12	0.24985453261902724	9.686746987951807	0.31575155737438304	0.030032295675941924	9.686862627474504	0.14388175199967057	6.063592847407018	6.393904257081331	1.6039618136625837	0.020989505247376312	-1.1484257871064467	-0.05247376311844078	
1.7375797482396704E12	0.3343039190056898	9.686746987951807	0.3045478584671653	0.26259452490920293	9.682063587282542	0.06311440119112162	5.295683048712145	5.6319363922478045	0.2938697076523155	0.014992503748125937	-1.1349325337331333	-0.05697151424287856	
1.737579748244633E12	0.4423654020140155	9.626506024096386	0.3417730516105016	0.26259452490920293	9.682063587282542	0.06311440119112162	4.053694113196944	3.677323173761802	-1.0815093288827489	0.014992503748125937	-1.1349325337331333	-0.05697151424287856	
1.737579748249596E12	0.48983053501878726	9.650602409638555	0.4145368595670553	0.4202746341239408	9.586082783443311	0.1467763769438386	3.176791623564936	2.0705648500911047	-2.212087318208717	0.0239880059970015	-1.128935532233883	-0.04947526236881559	
1.7375797482545586E12	0.4771811975428963	9.650602409638555	0.4746513300477181	0.4202746341239408	9.586082783443311	0.1467763769438386	3.136037965085775	0.0	-2.73090217473368	0.0239880059970015	-1.128935532233883	-0.04947526236881559	
1.7375797482595215E12	0.5123584027139455	9.650602409638555	0.5713886442681033	0.4758746146849932	9.602879424115176	0.2536133766048414	3.274810445053581	-2.4349842637071393	-2.82560805819117	0.0239880059970015	-1.1274362818590704	-0.04947526236881559	
1.7375797482644841E12	0.4642909203055598	9.771084337349398	0.5588597766729351	0.4758746146849932	9.602879424115176	0.2536133766048414	3.706643280765642	-4.472420076196786	-3.129871721280924	0.0239880059970015	-1.1274362818590704	-0.04947526236881559	
1.7375797482694468E12	0.45152111294894604	9.831325301204819	0.6310212352258749	0.476130048753416	9.722855428914217	0.35631511429224727	4.579367543897061	-5.979791287063111	-3.112864650043004	0.013493253373313342	-1.1409295352323838	-0.047976011994003	
1.7375797482744097E12	0.46284528173688655	9.831325301204819	0.7034236335402604	0.476130048753416	9.722855428914217	0.35631511429224727	5.098607395438748	-7.304952791121417	-2.969468487213204	0.013493253373313342	-1.1409295352323838	-0.047976011994003	
1.7375797482793723E12	0.3792391845152834	9.891566265060241	0.6302984159415383	0.4558874183964319	9.811637672465507	0.44465910327309466	5.249937644891769	-8.530727182375351	-2.788557751045268	0.010494752623688156	-1.1319340329835081	-0.04947526236881559	
1.7375797482843352E12	0.4146573294477781	9.963855421686748	0.7029417540173694	0.4558874183964319	9.811637672465507	0.44465910327309466	5.508417510961678	-9.491469272817625	-2.6028536995368787	0.010494752623688156	-1.1319340329835081	-0.04947526236881559	
1.7375797482892979E12	0.2943079186057298	9.93975903614458	0.6896900671378645	0.42280793622986756	9.888422315536891	0.4820050360816815	4.924038355317033	-10.154050024846777	-2.357893724658874	0.020989505247376312	-1.1334332833583207	-0.04947526236881559	
1.7375797482942605E12	0.31804048510811567	9.927710843373495	0.7260719711161414	0.42280793622986756	9.888422315536891	0.4820050360816815	4.171229654373994	-10.717243664071558	-2.1153084695587934	0.020989505247376312	-1.1334332833583207	-0.04947526236881559	
1.7375797482992234E12	0.40152611244899605	9.951807228915664	0.8112441767871406	0.3989365879764342	9.874025194961007	0.5208380376678982	3.6633866489359788	-11.197614709292694	-1.866995674608576	0.017991004497751123	-1.136431784107946	-0.05247376311844078	
1.737579748304186E12	0.41369357040199595	9.93975903614458	0.7993176585955862	0.3989365879764342	9.874025194961007	0.5208380376678982	3.2498799529322473	-11.52890508530727	-1.8639524142048414	0.017991004497751123	-1.136431784107946	-0.05247376311844078	
1.737579748309149E12	0.4267043175200552	9.91566265060241	0.7030622238980921	0.38522572456078213	9.850029994001199	0.51354056179923	3.077824374453344	-11.727679310916017	-1.5037238159316333	0.005997001499250375	-1.136431784107946	-0.05247376311844078	
1.737579748711131E12	-0.8525653458750511	9.93975903614458	0.9191851899147434	-0.7835534229708472	9.895620875824834	0.6384101785654488	20.94651495296663	-17.22709955275799	1.8262994965988872	0.0239880059970015	-1.1169415292353824	-0.05847076461769115	
1.7375797487160938E12	-1.0221869379327126	9.951807228915664	1.0138745161628415	-0.7835534229708472	9.895620875824834	0.6384101785654488	19.256776890412443	-17.37618022196455	2.346813255846026	0.022488755622188904	-1.12143928035982	-0.05997001499250375	
1.7375797487210566E12	-1.1795206021566518	10.096385542168676	1.084590336147108	-1.0807867769336117	10.008398320335932	0.8349508559184524	17.52695224446035	-17.492131853569653	2.281804650443023	0.022488755622188904	-1.12143928035982	-0.05997001499250375	
1.7375797487260193E12	-1.2163843856578198	10.3855421686747	1.1565108549386025	-1.0807867769336117	10.008398320335932	0.8349508559184524	15.454236490159236	-17.044889845949974	2.815248380707441	0.014992503748125937	-1.1349325337331333	-0.05547226386806597	
1.7375797487309822E12	-1.1449457463892165	10.602409638554217	1.241562590728879	-1.1937278648093816	10.404319136172765	0.9392800764967943	14.336249095692644	-15.570647672685107	2.8222573526347126	0.014992503748125937	-1.1349325337331333	-0.05547226386806597	
1.7375797487359448E12	-1.0723024083133854	10.783132530120483	1.2061444457963841	-1.1937278648093816	10.404319136172765	0.9392800764967943	13.779737536355238	-14.576776544641378	1.8118512649355103	0.014992503748125937	-1.1349325337331333	-0.07196401799100449	
1.7375797487409075E12	-0.9754446242122775	11.012048192771084	1.158920252553058	-1.082629671535965	10.920215956808637	0.9270955860361179	12.642905426389728	-12.423389100546629	0.6405446504607515	0.014992503748125937	-1.1349325337331333	-0.07196401799100449	
1.7375797487458704E12	-0.8784663702304468	11.19277108433735	1.0996490712374545	-1.082629671535965	10.920215956808637	0.9270955860361179	10.877495424935761	-10.286566175252608	-1.9915026773433235	0.010494752623688156	-1.136431784107946	-0.05697151424287856	
1.737579748750833E12	-0.7340229832438443	11.313253012048193	1.113141697878405	-0.8332294336286816	11.244151169766045	0.9282153303948224	8.250925769756668	-8.663243332781182	-4.265624448867298	0.010494752623688156	-1.136431784107946	-0.05697151424287856	
1.737579748755796E12	-0.6505373559029639	11.265060240963855	1.1983139035494041	-0.8332294336286816	11.244151169766045	0.9282153303948224	5.426998350610487	-6.327646181878416	-6.712086209593761	0.017991004497751123	-1.1334332833583207	-0.047976011994003	
1.7375797487607585E12	-0.5545228609669154	11.084337349397591	1.2354186268120175	-0.6295709645931787	11.234553089382123	1.0224281372801847	2.693762495274494	-5.41659764783833	-9.039342942457052	0.017991004497751123	-1.1334332833583207	-0.047976011994003	
1.7375797487657212E12	-0.5536795718018559	10.927710843373495	1.1510897103060778	-0.6295709645931787	11.234553089382123	1.0224281372801847	1.50662577217134	-4.439291038595329	-11.305762515755747	0.01199400299850075	-1.1319340329835081	-0.05847076461769115	
1.737579748770684E12	-0.6254796207126275	10.783132530120483	1.1021789387326328	-0.585685766433748	10.920215956808637	0.9066901692624572	1.318755097912609	-4.571807189001159	-13.958205043940826	0.01199400299850075	-1.1319340329835081	-0.05847076461769115	
1.7375797487756467E12	-0.5648832707090736	10.530120481927712	1.0666403239194153	-0.585685766433748	10.920215956808637	0.9066901692624572	2.1666860432615858	-5.433162166639058	-16.05604689889974	0.02848575712143928	-1.143928035982009	-0.06446776611694152	
1.7375797487806096E12	-0.28828442456959125	10.289156626506024	1.1175990834651475	-0.39203518651159863	10.36112777444511	0.8084567851642256	2.061068206733632	-5.366904091436143	-14.682624654986503	0.02848575712143928	-1.143928035982009	-0.06446776611694152	
1.7375797487855723E12	-0.636803789500568	9.93975903614458	1.0297765404182473	-0.39203518651159863	10.36112777444511	0.8084567851642256	4.736047529450759	-7.205565678317044	-21.843650341706805	0.019490254872563718	-1.128935532233883	-0.06896551724137931	
1.737579748790535E12	-0.382612341175521	9.771084337349398	0.9118365271906544	-0.6080540153427891	9.821235752849429	0.6394213214119754	6.496009724333406	-8.381646513168793	-15.604035220476815	0.019490254872563718	-1.128935532233883	-0.06896551724137931	
1.7375797487954978E12	-0.622588343575281	9.518072289156628	0.8130512249979821	-0.6080540153427891	9.821235752849429	0.6394213214119754	9.370769128156812	-9.706808017227099	-19.772165495619955	0.020989505247376312	-1.1229385307346327	-0.06296851574212893	
1.7375797489344546E12	-1.4728647617165993	9.096385542168676	1.5033436415394605	-1.9511724309105276	8.80623875224955	1.1671665801684075	15.969860743802371	17.50869637237038	9.44577860598018	0.031484257871064465	-1.1259370314842578	-0.06596701649175413	
1.7375797489394172E12	-1.9437815254619115	9.156626506024097	1.6070682088417665	-1.533246628755457	9.072585482903419	1.2870427541700842	17.56555614825517	24.200761967864832	-9.235553569773973	0.031484257871064465	-1.1259370314842578	-0.06596701649175413	
1.7375797489443801E12	-2.185082696549622	9.313253012048193	1.6407997754441423	-1.533246628755457	9.072585482903419	1.2870427541700842	16.64883999359039	28.67318204406162	-10.978945760263851	0.031484257871064465	-1.1394302848575713	-0.06146926536731634	
1.7375797489493428E12	-1.9682369112486342	9.361445783132531	1.6429682332971522	-2.2351839537836256	9.312537492501498	1.3954563496893704	16.748405100843236	30.793440450554908	-7.152914372225574	0.031484257871064465	-1.1394302848575713	-0.06146926536731634	
1.7375797489543057E12	-1.822468355574081	9.566265060240964	1.5239439911430543	-2.2351839537836256	9.312537492501498	1.3954563496893704	16.058649236398487	30.710617856551266	-5.558644926219461	0.035982008995502246	-1.1334332833583207	-0.07196401799100449	
1.7375797489592683E12	-1.7481384391681314	9.710843373493976	1.3198680131986802	-1.7541884959837284	9.61007798440312	1.2486857691633175	12.577684597850533	30.130859698525757	-3.557127472649073	0.035982008995502246	-1.1334332833583207	-0.07196401799100449	
1.737579748964231E12	-1.3127602902360367	9.855421686746988	1.1555470958928202	-1.7541884959837284	9.61007798440312	1.2486857691633175	9.312400437832679	33.22842471426205	-4.746935054324508	0.0239880059970015	-1.12143928035982	-0.07346326836581708	
1.7375797489691938E12	-1.2044578674662654	9.855421686746988	1.1686783128916023	-1.3461013472306453	9.838032393521296	0.9367070843960092	6.69740355834361	33.7750538346861	-5.115547258557057	0.0239880059970015	-1.12143928035982	-0.07346326836581708	
1.7375797489741565E12	-1.119406131675989	9.951807228915664	1.0972396736229992	-1.3461013472306453	9.838032393521296	0.9367070843960092	4.584022910190842	34.18916680470432	-5.109794847568066	0.02848575712143928	-1.1229385307346327	-0.06296851574212893	
1.7375797489791194E12	-0.5176590774657474	10.084337349397591	1.1634981080205233	-0.9525692768592359	9.907618476304739	0.8905885542781922	3.7736729663740705	33.0296504886533	5.481095399346382	0.02848575712143928	-1.1229385307346327	-0.06296851574212893	
1.737579748984082E12	-1.0000204798797228	9.91566265060241	1.2068672650807208	-0.9525692768592359	9.907618476304739	0.8905885542781922	4.907159271924095	30.39589199933742	-2.201378953512125	0.019490254872563718	-1.1169415292353824	-0.06896551724137931	
1.7375797489890447E12	-1.1195266015567118	9.867469879518072	1.1092866616952763	-0.8618688681271909	9.890821835632872	0.8590323209091977	3.2141988337961562	32.48302136822925	-9.015595477624817	0.019490254872563718	-1.1169415292353824	-0.06896551724137931	
1.7375797489940076E12	-0.8431686951786749	9.734939759036145	1.1843393973855627	-0.8618688681271909	9.890821835632872	0.8590323209091977	5.344126526606676	28.043730329633924	-7.6132652180948845	0.019490254872563718	-1.128935532233883	-0.06746626686656672	
1.7375797489989702E12	-0.830519357702784	9.734939759036145	1.1242249269048998	-0.9700587541930917	9.838032393521296	0.8412748921026246	7.683031683436586	25.144939539506375	-7.200564974592778	0.019490254872563718	-1.128935532233883	-0.06746626686656672	
1.737579749003933E12	-0.6115051145487861	9.795180722891567	0.9095475994569218	-0.9700587541930917	9.838032393521296	0.8412748921026246	8.874499052592679	22.395229418585387	-2.304422870293958	0.022488755622188904	-1.1079460269865067	-0.0704647676161919	
1.7375797490088958E12	-0.6106618253837267	9.783132530120483	0.825218682950982	-0.3665111435544037	9.722855428914217	0.6869890483899304	12.35866133922409	19.96024515487825	1.4998691403780207	0.022488755622188904	-1.1079460269865067	-0.0704647676161919	
1.7375797490138584E12	-1.2234921086204633	9.686746987951807	0.6624638740945182	-0.3665111435544037	9.722855428914217	0.6869890483899304	11.022661476961705	22.047374523770085	-10.382533607349727	0.022488755622188904	-1.1259370314842578	-0.06146926536731634	
1.7375797490188213E12	-0.9101499488605356	9.614457831325302	0.6535491029210332	-1.1938636595781573	9.64607078584283	0.4841760505014011	11.133783027337108	21.202584064932914	-7.712146531566836	0.022488755622188904	-1.1259370314842578	-0.06146926536731634	
1.737579749023784E12	-0.8619619965714271	9.66265060240964	0.6540309824439243	-1.1938636595781573	9.64607078584283	0.4841760505014011	13.182923303360003	18.585390094417757	-7.419436002156385	0.014992503748125937	-1.1334332833583207	-0.06296851574212893	
1.7375797490287468E12	-0.8364223818581997	9.66265060240964	0.5097080653380445	-0.8007268433277159	9.602879424115176	0.34234678532344553	14.828949300904142	16.564518800728838	-6.63153039669278	0.014992503748125937	-1.1334332833583207	-0.06296851574212893	
1.7375797490337095E12	-0.8350972131702492	9.614457831325302	0.3771911965429963	-0.8007268433277159	9.602879424115176	0.34234678532344553	15.892928097062208	15.421567003478549	-5.8318602422085535	0.019490254872563718	-1.1349325337331333	-0.07196401799100449	
1.737579749038672E12	-0.834735803528081	9.578313253012048	0.341050232326165	-0.8472794059489279	9.593281343731253	0.12955921199604703	16.92798364291355	14.841808845453038	-5.202652193345674	0.019490254872563718	-1.1349325337331333	-0.07196401799100449	
1.737579749043635E12	-0.8581069603882985	9.63855421686747	0.26852736413105677	-0.8472794059489279	9.593281343731253	0.12955921199604703	17.81612361026943	13.748550604604935	-5.1958219764070375	0.05247376311844078	-1.118440779610195	-0.08695652173913043	
1.7375797490485977E12	-0.8946093342472982	9.626506024096386	0.3043069187057198	-0.8499528940723814	9.557288542291541	0.03228673595162642	19.071719573425796	12.704985920159018	-5.18114570398837	0.05247376311844078	-1.118440779610195	-0.08695652173913043	
1.7375797490535605E12	-0.9317140575099117	9.66265060240964	0.4003214136417683	-0.8499528940723814	9.557288542291541	0.03228673595162642	20.648270538132525	11.545469604108	-5.1027046555189255	0.02848575712143928	-1.1094452773613193	-0.06446776611694152	
1.7375797490585232E12	-1.0766393240194052	9.759036144578314	0.4350167392899264	-0.9880399391198541	9.61007798440312	0.12370596292111408	21.631295315204632	10.96571144608249	-5.395994001320792	0.02848575712143928	-1.1094452773613193	-0.06446776611694152	
1.7375797490634858E12	-1.1253091558314048	9.759036144578314	0.48272281205614376	-0.9880399391198541	9.61007798440312	0.12370596292111408	23.11810167557328	10.535033957263542	-5.531453927925113	0.026986506746626684	-1.128935532233883	-0.06146926536731634	
1.7375797490684487E12	-1.2586693137915124	9.819277108433736	0.565726559874133	-1.161602449218273	9.713257348530293	0.25679682580972923	24.62401104981117	10.203743581248965	-6.045821673306834	0.026986506746626684	-1.128935532233883	-0.06146926536731634	
1.7375797490734114E12	-1.34420292910468	9.867469879518072	0.6853531514318447	-1.161602449218273	9.713257348530293	0.25679682580972923	25.76697448831627	10.054662912042405	-7.019041480937734	0.017991004497751123	-1.1259370314842578	-0.07196401799100449	
1.7375797490783743E12	-1.547797027526163	9.927710843373495	0.5628352827367865	-1.4144128508714207	9.821235752849429	0.3107118276356971	26.823054569463846	9.806195130031472	-8.492286961698298	0.017991004497751123	-1.1259370314842578	-0.07196401799100449	
1.737579749083337E12	-1.8007837770439823	10.060240963855422	0.5603054152416084	-1.4144128508714207	9.821235752849429	0.3107118276356971	28.089385710668957	9.623985423223454	-9.55112849415494	0.03298350824587706	-1.106446776611694	-0.06746626686656672	
1.7375797490882996E12	-2.063649056781069	10.397590361445785	0.3408092925647194	-1.850069885354889	10.015596880623875	0.269083182294097	31.038053797208207	10.485340400861354	-10.390372063852983	0.03298350824587706	-1.106446776611694	-0.06746626686656672	
1.7375797490932625E12	-2.1318350092701572	10.831325301204819	-0.06951112117703892	-1.850069885354889	10.015596880623875	0.269083182294097	30.481544503427376	11.893324498923306	-12.932398275356142	0.029985007496251874	-1.1109445277361318	-0.05997001499250375	
1.737579749098225E12	-2.1417135394894244	11.216867469879519	-0.28647737635874965	-2.1851518050515426	10.86742651469706	-0.2978369991549866	25.727079198284333	12.25774391253934	-16.812054591067174	0.029985007496251874	-1.1109445277361318	-0.05997001499250375	
1.737579749103188E12	-2.2608582515242452	11.46987951807229	-0.4201989439610256	-2.1851518050515426	10.86742651469706	-0.2978369991549866	21.567283452718158	12.307437468941526	-20.434317706731576	0.013493253373313342	-1.113943028485757	-0.06446776611694152	
1.7375797491081506E12	-1.3190247240336208	11.83132530120482	-0.6276480785656374	-2.2141943268589026	11.503299340131973	-0.5778125254151356	19.541281681321635	11.11479211528905	4.524205527866934	0.013493253373313342	-1.113943028485757	-0.06446776611694152	
1.7375797491131133E12	-2.4602359041204314	12.19277108433735	-0.9643613951857826	-2.2141943268589026	11.503299340131973	-0.5778125254151356	19.504128151135095	6.940533377505383	-17.794132111978023	0.010494752623688156	-1.1274362818590704	-0.07196401799100449	
1.7375797491180762E12	-2.6496145566166276	12.409638554216867	-1.303604579301106	-2.093173296393765	12.208758248350328	-1.2016123165704	10.163853136602263	6.923968858704654	-20.97949436466745	0.010494752623688156	-1.1274362818590704	-0.07196401799100449	
1.7375797491230388E12	-2.3838579997421943	12.44578313253012	-1.3732361703588678	-2.093173296393765	12.208758248350328	-1.2016123165704	6.838539133907049	3.2963392413450388	-20.76049838304794	0.01649175412293853	-1.1199400299850075	-0.06896551724137931	
1.7375797491280017E12	-2.4934855911999163	12.361445783132531	-1.2538505185626017	-2.3726200759720855	12.453509298140371	-1.5479800351139574	5.099219802145042	-7.752194798741096	-22.938825543753783	0.01649175412293853	-1.1199400299850075	-0.06896551724137931	
1.7375797491329644E12	-2.421444602527699	12.120481927710845	-1.2290337231337107	-2.3726200759720855	12.453509298140371	-1.5479800351139574	2.7726102133666055	-13.748550604604935	-24.58108259240326	0.034482758620689655	-1.1244377811094453	-0.07946026986506746	
1.737579749137927E12	-2.531433603627589	11.855421686746988	-1.0735071071206133	-2.444410056994442	12.136772645470904	-1.4226842172524905	2.3509482165547166	-17.343051184363095	-23.762509251183737	0.034482758620689655	-1.1244377811094453	-0.07946026986506746	
1.73757974914289E12	-2.400000963759046	11.674698795180724	-0.9637590457821688	-2.444410056994442	12.136772645470904	-1.4226842172524905	1.7757779788002315	-19.430180553254928	-24.43844106532176	0.031484257871064465	-1.1109445277361318	-0.07346326836581708	
1.7375797491478525E12	-2.2551961671302747	11.674698795180724	-0.9864073833580497	-2.415814128770211	11.64487102579484	-1.2358524529444022	1.609400674141105	-19.38048699685274	-24.64603984902629	0.031484257871064465	-1.1109445277361318	-0.07346326836581708	
1.7375797491528154E12	-2.0142564056847325	11.506024096385543	-0.9839979857435943	-2.415814128770211	11.64487102579484	-1.2358524529444022	1.0647206839804224	-17.22709955275799	-25.308209286250484	0.034482758620689655	-1.1049475262368815	-0.06596701649175413	
1.737579749157778E12	-1.6163443896574197	11.361445783132531	-1.016163443896574	-2.0231181651683245	11.512897420515896	-1.2401656445860862	-2.0903103237078504	-15.653470266688752	-26.803577123855096	0.034482758620689655	-1.1049475262368815	-0.06596701649175413	
1.7375797491627407E12	-1.4837070509816488	11.46987951807229	-1.026885263280901	-2.0231181651683245	11.512897420515896	-1.2401656445860862	-6.6626630072945145	-9.193307934404505	-25.92359207299878	0.0239880059970015	-1.1094452773613193	-0.07646176911544228	
1.7375797491677036E12	-1.5834561122201032	11.3855421686747	-0.6905333563029239	-1.4076578953005017	11.431313737252548	-1.1817703619957047	-11.549094509007418	-1.623322842471426	-24.26359657245889	0.0239880059970015	-1.1094452773613193	-0.07646176911544228	
1.7375797491726663E12	-1.7101904267404584	11.168674698795181	-0.06529467535174194	-1.4076578953005017	11.431313737252548	-1.1817703619957047	-13.892348757856569	5.284081497432499	-24.241387614036835	0.02848575712143928	-1.113943028485757	-0.07346326836581708	
1.7375797491776292E12	-1.9078815010065258	11.120481927710843	0.4267043175200552	-1.6439897574138163	11.208158368326334	-0.33515416164173994	-10.542301723610441	11.793937386118932	-22.3395060463065	0.03298350824587706	-1.1259370314842578	-0.07346326836581708	
1.7375797491825918E12	-1.7911461865861606	11.036144578313253	0.8013656465678733	-1.6439897574138163	11.208158368326334	-0.33515416164173994	-6.011864629315493	11.959582574126221	-23.622112872432293	0.03298350824587706	-1.1259370314842578	-0.07346326836581708	
1.7375797491875544E12	-1.9481184411679313	11.024096385542169	0.8359405023353086	-1.8238065627387277	11.025794841031793	0.45707178589711756	2.0352217497872886	16.051018717906242	-16.69215966479316	0.01649175412293853	-1.113943028485757	-0.06596701649175413	
1.7375797491925173E12	-2.1891786724941964	11.204819277108435	0.8455780927931303	-1.8238065627387277	11.025794841031793	0.45707178589711756	7.537002871861321	6.244823587874772	-15.568587339271417	0.01649175412293853	-1.113943028485757	-0.06596701649175413	
1.73757974919748E12	-2.6335920624804987	10.867469879518072	0.7086038384113396	-2.1548954475656688	11.148170365926815	0.4988139487222505	11.306386476022112	1.1429517972502898	-12.721342854891141	0.029985007496251874	-1.113943028485757	-0.0704647676161919	
1.7375797492024429E12	-2.94187448725007	10.891566265060241	0.21154511054918604	-2.1548954475656688	11.148170365926815	0.4988139487222505	11.945425391124083	9.739937054828557	-9.243917366619725	0.029985007496251874	-1.113943028485757	-0.0704647676161919	
1.7375797492074055E12	-2.7216555452888445	11.313253012048193	-0.12360209762156314	-2.794714471769429	10.831433713257347	0.041728207409112164	13.20984643155972	7.901275467947656	-3.986174549539994	0.01649175412293853	-1.1199400299850075	-0.06746626686656672	
1.7375797492123682E12	-2.6944293522454985	11.421686746987952	-0.43658284773932243	-2.794714471769429	10.831433713257347	0.041728207409112164	13.371848088401569	9.789630611230743	-0.278223847813679	0.01649175412293853	-1.1199400299850075	-0.06746626686656672	
1.737579749217331E12	-2.6190152069130437	11.542168674698797	-0.7490817183341907	-2.5585081204955284	11.46490701859628	-0.6831390098655901	12.998978512995167	12.25774391253934	1.786681625444972	0.05247376311844078	-1.1454272863568216	-0.08995502248875561	
1.7375797492222937E12	-2.3865083371180953	11.74698795180723	-1.1082024327687714	-2.5585081204955284	11.46490701859628	-0.6831390098655901	12.910240488472803	11.69455027331456	1.472122668799223	0.05247376311844078	-1.1454272863568216	-0.08995502248875561	
1.7375797492272566E12	-2.1417135394894244	11.91566265060241	-1.4912966534671834	-2.364854761769879	11.748050389922014	-1.35887853968157	13.608662119684565	12.423389100546629	0.5426701142387071	0.02848575712143928	-1.1244377811094453	-0.06896551724137931	
1.7375797492322192E12	-2.0296765504172476	11.867469879518072	-1.8516220667089918	-2.364854761769879	11.748050389922014	-1.35887853968157	12.693740573176644	13.135663408977969	0.15121067621003345	0.02848575712143928	-1.1244377811094453	-0.06896551724137931	
1.737579749237182E12	-1.9086043202908625	11.481927710843374	-1.9106523082631495	-1.9148680371750892	11.863227354529092	-2.033734399906045	12.21776359573488	12.936889183369223	1.8071013759759749	0.034482758620689655	-1.113943028485757	-0.06746626686656672	
1.7375797492421448E12	-1.8971596816221992	10.819277108433736	-1.8502968980210412	-1.9148680371750892	11.863227354529092	-2.033734399906045	13.814190964043371	13.069405333775054	6.0234763368573185	0.034482758620689655	-1.113943028485757	-0.06746626686656672	
1.7375797492471074E12	-1.7159729810151514	10.397590361445785	-1.896677802099308	-1.7852778119789077	10.881823635272944	-2.162206398745145	18.903039208708012	13.433824747391087	11.686890767789652	0.022488755622188904	-1.103448275862069	-0.07796101949025487	
1.7375797492520703E12	-1.3031226997782148	9.975903614457831	-2.2178505041062158	-1.1875297445007358	10.881823635272944	-2.4884088488662113	24.960287258782376	15.570647672685107	15.456725882864907	0.022488755622188904	-1.103448275862069	-0.07796101949025487	
1.737579749257033E12	-0.8893086594954962	9.674698795180724	-2.6353991106913406	-1.256631542495526	10.039592081583683	-2.497522182383052	29.74452831837486	18.25409971840318	17.89020032177882	0.026986506746626684	-1.1094452773613193	-0.06746626686656672	
1.7375797492619956E12	-0.37948012427672895	9.289156626506024	-3.0158429940138514	-0.3783337651031463	9.274145170965806	-3.225344077406195	31.606021592133313	21.169455027331455	18.570888259869378	0.026986506746626684	-1.1094452773613193	-0.06746626686656672	
1.7375797492669585E12	-0.06264433797584096	8.975903614457831	-3.374120419283373	-0.3783337651031463	9.274145170965806	-3.225344077406195	31.119482721291295	23.63756832864005	18.220181163366753	0.02848575712143928	-1.1124437781109444	-0.0704647676161919	
1.7375797492719211E12	0.18118670060704772	8.602409638554217	-3.660838735403568	0.1838792470078632	8.65986802639472	-3.8533156991229527	29.5469683369162	25.37684280271658	17.738082081733456	0.02848575712143928	-1.1124437781109444	-0.0704647676161919	
1.737579749276884E12	0.364180449424937	8.433734939759036	-3.8879244605659915	0.1838792470078632	8.65986802639472	-3.8533156991229527	27.16044150446674	26.155375186350835	17.493368695745442	0.01649175412293853	-1.1109445277361318	-0.0704647676161919	
1.7375797492818467E12	0.44850936593087676	8.265060240963855	-3.8870811714009323	0.48128210382014724	8.160767846430714	-4.058331518951933	24.786199961801728	26.91734305118436	16.02012633131289	0.01649175412293853	-1.1109445277361318	-0.0704647676161919	
1.7375797492868093E12	0.57994200579942	8.072289156626507	-3.7773331100624876	0.48128210382014724	8.160767846430714	-4.058331518951933	23.138821045199496	26.81795593837999	13.836119063511424	0.029985007496251874	-1.0974512743628186	-0.07796101949025487	
1.7375797492917722E12	0.6615001150487361	7.903614457831326	-3.499409095235055	0.5730119454808051	7.880023995200959	-3.7949390754259396	23.240059769511124	24.184197449064104	11.369214473084021	0.029985007496251874	-1.0974512743628186	-0.07796101949025487	
