"sep=	"
Shimmer_952D_TimestampSync_Unix_CAL	Shimmer_952D_Accel_LN_X_CAL	Shimmer_952D_Accel_LN_Y_CAL	Shimmer_952D_Accel_LN_Z_CAL	Shimmer_952D_Accel_WR_X_CAL	Shimmer_952D_Accel_WR_Y_CAL	Shimmer_952D_Accel_WR_Z_CAL	Shimmer_952D_Gyro_X_CAL	Shimmer_952D_Gyro_Y_CAL	Shimmer_952D_Gyro_Z_CAL	Shimmer_952D_Mag_X_CAL	Shimmer_952D_Mag_Y_CAL	Shimmer_952D_Mag_Z_CAL	
ms	m/(s^2)	m/(s^2)	m/(s^2)	m/(s^2)	m/(s^2)	m/(s^2)	deg/s	deg/s	deg/s	local_flux	local_flux	local_flux	
1.7375805816755059E12	0.268406894250334	9.698795180722891	-0.3346653286478581	0.3093091140685532	9.710857828434312	-0.5405134401482125	0.8227378351849981	1.010435646844459	0.42146916143892815	0.004497751124437781	-1.1349325337331333	-0.04047976011994003	
1.7375805816804807E12	0.32864183461171953	9.72289156626506	-0.3340629792442442	0.3186844823961079	9.70605878824235	-0.54738809209177	1.2162773638801763	1.1098227596488321	0.883749063743479	0.008995502248875561	-1.1319340329835081	-0.038980509745127435	
1.7375805816854553E12	0.29286228003705655	9.698795180722891	-0.3705653531032439	0.3186844823961079	9.70605878824235	-0.54738809209177	1.3541933051240371	1.3914195792612223	0.8746970526805251	0.008995502248875561	-1.1319340329835081	-0.038980509745127435	
1.7375805816904302E12	0.292621340275611	9.72289156626506	-0.3464713769586897	0.34833831635377305	9.677264547090582	-0.5289250555639418	1.3238756184232765	1.2754679476561206	0.8436785864625489	0.01649175412293853	-1.1379310344827587	-0.031484257871064465	
1.737580581695405E12	0.3167153164201652	9.698795180722891	-0.3462304371972441	0.34833831635377305	9.677264547090582	-0.5289250555639418	1.9798968149862268	1.3417260228590357	1.0914823604891164	0.01649175412293853	-1.1379310344827587	-0.031484257871064465	
1.7375805817003796E12	0.3411707022068877	9.771084337349398	-0.3821304616526299	0.3458433624043368	9.684463107378523	-0.519650799200672	2.147113431274823	1.6730163988736126	1.2151499812466735	0.0029985007496251873	-1.1229385307346327	-0.038980509745127435	
1.7375805817053545E12	0.2929827499177793	9.74698795180723	-0.382612341175521	0.3458433624043368	9.684463107378523	-0.519650799200672	2.5158623449929567	1.9546132184860028	1.0937042449615657	0.0029985007496251873	-1.1229385307346327	-0.038980509745127435	
1.7375805817103293E12	0.29286228003705655	9.74698795180723	-0.3705653531032439	0.325515411241699	9.725254949010196	-0.5425142110456933	2.515716111258864	1.9546132184860028	1.1083276183708388	-0.01199400299850075	-1.1274362818590704	-0.037481259370314844	
1.737580581715304E12	0.292621340275611	9.710843373493976	-0.3464713769586897	0.325515411241699	9.725254949010196	-0.5425142110456933	2.5307726080725343	1.5736292860692396	1.1340715051508545	-0.01199400299850075	-1.1274362818590704	-0.037481259370314844	
1.7375805817202788E12	0.25623943629733414	9.734939759036145	-0.32273881045630376	0.3420013485199357	9.725254949010196	-0.5584969871977091	3.174267996559101	1.5736292860692396	1.1030625186687208	0.010494752623688156	-1.1409295352323838	-0.035982008995502246	
1.7375805817252537E12	0.25732366522383904	9.74698795180723	-0.43116170310679774	0.3420013485199357	9.725254949010196	-0.5584969871977091	2.863622111384545	1.9877422560874605	1.5397796731840605	0.010494752623688156	-1.1409295352323838	-0.035982008995502246	
1.7375805817302283E12	0.2692501834153934	9.74698795180723	-0.41899424515379785	0.34495661161449886	9.722855428914217	-0.5907867008173195	2.984955790772513	1.8220970680801722	1.6575602795633864	0.0014992503748125937	-1.1274362818590704	-0.041979010494752625	
1.7375805817352031E12	0.3661079675165014	9.759036144578314	-0.4662184383971241	0.34495661161449886	9.722855428914217	-0.5907867008173195	2.721887531847714	1.8717906244823586	1.9306955135440564	0.0014992503748125937	-1.1274362818590704	-0.041979010494752625	
1.737580581740178E12	0.3405683528032739	9.734939759036145	-0.3218955212912444	0.38818772644001925	9.694061187762447	-0.5583470610309857	3.33824594112913	2.1202584064932912	1.5505973112830105	0.008995502248875561	-1.12143928035982	-0.035982008995502246	
1.7375805817451526E12	0.3771911965429963	9.710843373493976	-0.36972206393818446	0.38818772644001925	9.694061187762447	-0.5583470610309857	3.675849449361626	1.7889680304787146	1.4809049872677398	0.008995502248875561	-1.12143928035982	-0.035982008995502246	
1.7375805817501274E12	0.36526467835144194	9.674698795180724	-0.38188952189118436	0.3672726008972642	9.67246550689862	-0.5518517538701382	3.9533693967158525	1.5570647672685107	1.293994478491308	0.008995502248875561	-1.1274362818590704	-0.038980509745127435	
1.7375805817551023E12	0.33020794306111556	9.698795180722891	-0.49067382418384664	0.3672726008972642	9.67246550689862	-0.5518517538701382	4.351746231480683	1.5405002484677819	1.2725437738306873	0.008995502248875561	-1.1274362818590704	-0.038980509745127435	
1.737580581760077E12	0.3300874731803928	9.74698795180723	-0.47862683611156953	0.3678674522063029	9.696460707858428	-0.5815943193220747	4.366043405572738	1.4411131356634088	1.3742199327721696	0.019490254872563718	-1.1319340329835081	-0.04497751124437781	
1.7375805817650518E12	0.3534586300406104	9.74698795180723	-0.40610396791646136	0.3678674522063029	9.696460707858428	-0.5815943193220747	4.107942125245124	1.5405002484677819	1.1506573070343367	0.019490254872563718	-1.1319340329835081	-0.04497751124437781	
1.7375805817700266E12	0.3897200641381645	9.759036144578314	-0.4177895463465702	0.38878209794100044	9.720455908818236	-0.5880656360800433	4.168736981345985	1.639887361272155	1.1967459695362626	0.010494752623688156	-1.1229385307346327	-0.047976011994003	
1.7375805817750012E12	0.41321169087910486	9.63855421686747	-0.35731366622373906	0.38878209794100044	9.720455908818236	-0.5880656360800433	4.293299395728584	1.3582905416597646	0.9916530764524212	0.010494752623688156	-1.1229385307346327	-0.047976011994003	
1.737580581779976E12	0.42586102835499584	9.74698795180723	-0.4174281367044018	0.42684359544372724	9.682063587282542	-0.5280920123711226	4.2466057963660075	1.6564518800728838	1.0668323082690756	0.004497751124437781	-1.136431784107946	-0.043478260869565216	
1.737580581784951E12	0.4738080408826587	9.674698795180724	-0.3928522810369565	0.42684359544372724	9.682063587282542	-0.5280920123711226	4.324364812306368	1.3085969852575783	0.9478985549680903	0.004497751124437781	-1.136431784107946	-0.043478260869565216	
1.7375805817899255E12	0.5100694749802128	9.614457831325302	-0.40453785946706533	0.46665695462305856	9.648470305938812	-0.5557114724924206	4.908479654533979	1.6895809176743415	0.7293699217935309	0.010494752623688156	-1.136431784107946	-0.043478260869565216	
1.7375805817949004E12	0.4980224869079357	9.710843373493976	-0.4046583293477881	0.46665695462305856	9.648470305938812	-0.5557114724924206	4.695921977144071	1.2920324664568494	0.5456277067260984	0.010494752623688156	-1.136431784107946	-0.043478260869565216	
1.7375805817998752E12	0.46248387209471825	9.879518072289157	-0.46525467935134196	0.5136673788086291	9.648470305938812	-0.5967638596000459	4.5420472948721455	1.639887361272155	0.6191602524485877	0.008995502248875561	-1.12143928035982	-0.046476761619190406	
1.7375805818048499E12	0.4740489806441043	9.63855421686747	-0.41694625718151074	0.5136673788086291	9.648470305938812	-0.5967638596000459	4.342524178944817	2.0705648500911047	0.6633554592700955	0.008995502248875561	-1.12143928035982	-0.046476761619190406	
1.7375805818098247E12	0.45055735390316387	9.66265060240964	-0.47742213730434185	0.5295104186694725	9.634073185362926	-0.5806017648823981	4.219161444606768	2.054000331290376	0.7484803478990569	0.019490254872563718	-1.1454272863568216	-0.05397301349325337	
1.7375805818147996E12	0.4267043175200552	9.63855421686747	-0.5017570532103416	0.5295104186694725	9.634073185362926	-0.5806017648823981	4.236237059646585	1.9546132184860028	0.5723124120643501	0.019490254872563718	-1.1454272863568216	-0.05397301349325337	
1.7375805818197742E12	0.5338020414825987	9.63855421686747	-0.3681559554887885	0.5271634415095605	9.593281343731253	-0.5787263479953428	4.496528533744278	1.8883551432830874	0.5768556607942749	0.014992503748125937	-1.1334332833583207	-0.043478260869565216	
1.737580581824749E12	0.48657784823927247	9.602409638554217	-0.46501373958989645	0.5271634415095605	9.593281343731253	-0.5787263479953428	5.250716270879076	1.8220970680801722	0.196366786518158	0.014992503748125937	-1.1334332833583207	-0.043478260869565216	
1.7375805818297239E12	0.618371897749984	9.614457831325302	-0.3914066424682833	0.5945013370497111	9.55488902219556	-0.5968913328550676	5.085013826788112	2.4349842637071393	-0.07871805400253565	0.0014992503748125937	-1.1259370314842578	-0.04497751124437781	
1.7375805818346985E12	0.6310212352258749	9.614457831325302	-0.45152111294894604	0.5945013370497111	9.55488902219556	-0.5968913328550676	5.372252987219808	2.550935895312241	0.293843697621023	0.0014992503748125937	-1.1259370314842578	-0.04497751124437781	
1.7375805818396733E12	0.667885018727043	9.626506024096386	-0.5234416317404404	0.634957113838378	9.538092381523695	-0.6566316734431499	5.162576925374701	2.584064932913699	-0.17806007192642292	-0.004497751124437781	-1.1199400299850075	-0.031484257871064465	
1.7375805818446482E12	0.6560789704162113	9.650602409638555	-0.5476560777657173	0.634957113838378	9.538092381523695	-0.6566316734431499	5.0912571620963885	2.8822262713268176	-0.7030515848302361	-0.004497751124437781	-1.1199400299850075	-0.031484257871064465	
1.7375805818496228E12	0.6202994158415484	9.650602409638555	-0.584158451624717	0.6406821729068923	9.538092381523695	-0.7119377446517726	5.213418560269234	3.2135166473413945	-0.6680428569387236	0.0	-1.1349325337331333	-0.04047976011994003	
1.7375805818545977E12	0.6323464039138255	9.590361445783133	-0.5840379817439942	0.6406821729068923	9.538092381523695	-0.7119377446517726	4.895378296676787	3.4288553917508695	-1.0232814287813965	0.0	-1.1349325337331333	-0.04047976011994003	
1.7375805818595725E12	0.667885018727043	9.457831325301205	-0.5234416317404404	0.6361184424784619	9.49730053989202	-0.7146981054473449	5.083965958275537	3.1141295345370215	-1.5053247708920734	-0.0014992503748125937	-1.128935532233883	-0.04497751124437781	
1.737580581864547E12	0.6077705482463802	9.590361445783133	-0.5360909692163314	0.6361184424784619	9.49730053989202	-0.7146981054473449	5.041095965567898	3.1969521285406657	-1.8125062045692437	-0.0014992503748125937	-1.128935532233883	-0.04497751124437781	
1.737580581869522E12	0.5482584271693313	9.626506024096386	-0.6089752470536078	0.619454235200477	9.46610677864427	-0.6898018293079194	5.06330632250752	2.931919827729004	-2.5021483303844505	0.01199400299850075	-1.1229385307346327	-0.038980509745127435	
1.7375805818744968E12	0.6923404045137654	9.481927710843374	-0.5593416561958262	0.619454235200477	9.46610677864427	-0.6898018293079194	4.625781583213607	2.368726188504224	-3.1600878772565943	0.01199400299850075	-1.1229385307346327	-0.038980509745127435	
1.7375805818794714E12	0.703664573301706	9.493975903614459	-0.48693925788144077	0.6516866403147905	9.473305338932212	-0.6847939095039546	4.09666254077874	2.020871293688918	-3.8469585189153728	0.005997001499250375	-1.1199400299850075	-0.047976011994003	
1.7375805818844463E12	0.7033031636595376	9.46987951807229	-0.45079829366460944	0.6516866403147905	9.473305338932212	-0.6847939095039546	3.4271134295692853	1.6730163988736126	-4.273364396438454	0.005997001499250375	-1.1199400299850075	-0.047976011994003	
1.7375805818894211E12	0.7273971398040918	9.493975903614459	-0.45055735390316387	0.6979146112046912	9.478104379124174	-0.5712501907195487	2.8837767068338476	0.6294517144276959	-5.069860576187233	0.005997001499250375	-1.1379310344827587	-0.037481259370314844	
1.7375805818943958E12	0.7024598744944782	9.421686746987952	-0.3664693771586697	0.6979146112046912	9.478104379124174	-0.5712501907195487	3.225943270995025	0.0	-5.595858493070665	0.005997001499250375	-1.1379310344827587	-0.037481259370314844	
1.7375805818993706E12	0.7018575250908644	9.46987951807229	-0.3062344367972841	0.745397603911097	9.43491301739652	-0.5204575627603957	3.3973653919221656	-0.7785323836342554	-5.892741336167563	0.013493253373313342	-1.1454272863568216	-0.050974512743628186	
1.7375805819043455E12	0.6902924165414783	9.506024096385543	-0.35454285896711535	0.745397603911097	9.43491301739652	-0.5204575627603957	3.2355892339668078	-1.4079840980619511	-6.5604547902489205	0.013493253373313342	-1.1454272863568216	-0.050974512743628186	
1.73758058190932E12	0.7143863926860325	9.518072289156628	-0.3543019192056698	0.7572568906027636	9.478104379124174	-0.5360546918010005	2.929462850467509	-2.3190326321020374	-6.575687803259307	0.0014992503748125937	-1.1334332833583207	-0.04047976011994003	
1.737580581914295E12	0.7504068870221412	9.518072289156628	-0.3418935214912244	0.7572568906027636	9.478104379124174	-0.5360546918010005	1.8917746022861293	-3.1969521285406657	-6.941625619118285	0.0014992503748125937	-1.1334332833583207	-0.04047976011994003	
1.7375805819192698E12	0.7264333807583097	9.566265060240964	-0.354181449324947	0.7524500507842151	9.499700059988001	-0.5266595830906631	0.7420530600398452	-3.760145767765446	-6.823989005515909	0.004497751124437781	-1.1199400299850075	-0.037481259370314844	
1.7375805819242444E12	0.7018575250908644	9.518072289156628	-0.3062344367972841	0.7524500507842151	9.499700059988001	-0.5266595830906631	0.22244522536771594	-4.604936226602617	-6.930586855301453	0.004497751124437781	-1.1199400299850075	-0.037481259370314844	
1.7375805819292192E12	0.6416225847294789	9.542168674698795	-0.306836786200898	0.709368136538603	9.487702459508098	-0.45108581076386983	-0.7259967400214726	-5.615371873447076	-7.032791541497456	0.005997001499250375	-1.128935532233883	-0.041979010494752625	
1.737580581934194E12	0.6415021148487561	9.602409638554217	-0.2947897981286209	0.709368136538603	9.487702459508098	-0.45108581076386983	-1.3538308233101277	-6.195130031472585	-7.03651950665953	0.005997001499250375	-1.128935532233883	-0.041979010494752625	
1.7375805819391687E12	0.6049997409897564	9.602409638554217	-0.25901024355395785	0.6389832039596984	9.52609478104379	-0.396042415074994	-1.8931050772193445	-7.354646347523604	-6.7078690008833055	0.0029985007496251873	-1.1304347826086956	-0.043478260869565216	
1.7375805819441436E12	0.6276480785656374	9.63855421686747	-0.114205446925187	0.6389832039596984	9.52609478104379	-0.396042415074994	-2.5414796699083317	-8.282259400364419	-6.1889395941591605	0.0029985007496251873	-1.1304347826086956	-0.043478260869565216	
1.7375805819491184E12	0.592591343275311	9.650602409638555	-0.2229897492178493	0.6460394892972773	9.571685662867425	-0.40243635862829535	-3.0192328674081916	-9.292695047208879	-5.886820456730593	0.01199400299850075	-1.128935532233883	-0.046476761619190406	
1.737580581954093E12	0.5684973671307568	9.650602409638555	-0.22323068897929485	0.6460394892972773	9.571685662867425	-0.40243635862829535	-3.5746021593556314	-9.922146761636574	-5.480059715279125	0.01199400299850075	-1.128935532233883	-0.046476761619190406	
1.7375805819590679E12	0.5800624756801428	9.650602409638555	-0.17492226680946363	0.6272363882612949	9.612477504499099	-0.3860688356975403	-4.5910756470044305	-10.319695212854066	-4.904686448102122	0.01649175412293853	-1.1319340329835081	-0.038980509745127435	
1.7375805819640427E12	0.6037950421825288	9.614457831325302	-0.13854036283118676	0.6272363882612949	9.612477504499099	-0.3860688356975403	-4.7950960691505715	-11.711114792115287	-4.410760619399235	0.01649175412293853	-1.1319340329835081	-0.038980509745127435	
1.7375805819690173E12	0.6280094882078057	9.650602409638555	-0.15034641114201833	0.6421934213146269	9.64607078584283	-0.32560640060431933	-5.201014125503297	-12.324001987742255	-3.635187755948992	0.008995502248875561	-1.12143928035982	-0.037481259370314844	
1.7375805819739922E12	0.6154806206126375	9.63855421686747	-0.10227892873363266	0.6421934213146269	9.64607078584283	-0.32560640060431933	-5.373830682824471	-12.224614874937883	-3.198861273448723	0.008995502248875561	-1.12143928035982	-0.037481259370314844	
1.737580581978967E12	0.6287323074921424	9.686746987951807	-0.22262833957568098	0.6647338074732645	9.626874625074985	-0.2978912974507575	-5.381376872774336	-12.804373032963392	-2.444242278462318	0.005997001499250375	-1.1274362818590704	-0.043478260869565216	
1.7375805819839417E12	0.6037950421825288	9.590361445783133	-0.13854036283118676	0.6647338074732645	9.626874625074985	-0.2978912974507575	-5.310053797254711	-13.135663408977969	-1.9195819896896933	0.005997001499250375	-1.1274362818590704	-0.043478260869565216	
1.7375805819889165E12	0.6043973915861426	9.55421686746988	-0.1987753031925723	0.7047403107021292	9.550089982003598	-0.33516796004872135	-5.161690786504229	-12.473082656948815	-1.4419473832678336	0.02848575712143928	-1.1499250374812593	-0.05247376311844078	
1.7375805819938914E12	0.604156451824697	9.506024096385543	-0.1746813270480181	0.7047403107021292	9.550089982003598	-0.33516796004872135	-5.353736717980868	-12.671856882557561	-0.6140770533680218	0.02848575712143928	-1.1499250374812593	-0.05247376311844078	
1.737580581998866E12	0.5804238853223112	9.518072289156628	-0.21106323102629496	0.6383417459664781	9.504499100179963	-0.36396951541396816	-5.418365117460604	-12.456518138148086	-0.2768113779825578	0.0074962518740629685	-1.1244377811094453	-0.04047976011994003	
1.7375805820038408E12	0.5682564273693113	9.44578313253012	-0.19913671283474063	0.6383417459664781	9.504499100179963	-0.36396951541396816	-5.410945897232874	-12.506211694550272	0.5126601673915422	0.0074962518740629685	-1.1244377811094453	-0.04047976011994003	
1.7375805820088157E12	0.48452986026698536	9.493975903614459	-0.2602149423611856	0.5833440780095969	9.487702459508098	-0.3854487041749961	-5.490446469017099	-12.290872950140798	0.8057495050790514	0.013493253373313342	-1.1259370314842578	-0.047976011994003	
1.7375805820137903E12	0.44862983581159954	9.44578313253012	-0.2846703281479081	0.5833440780095969	9.487702459508098	-0.3854487041749961	-4.976048396790663	-11.992711611727678	1.4333235994338192	0.013493253373313342	-1.1259370314842578	-0.047976011994003	
1.7375805820187651E12	0.4248972693092137	9.373493975903616	-0.32105223212618494	0.48844677045161583	9.461307738452309	-0.4904678528348362	-4.933367696954171	-11.644856716912374	1.759434320225711	0.013493253373313342	-1.1169415292353824	-0.04047976011994003	
1.73758058202374E12	0.32864183461171953	9.409638554216867	-0.3340629792442442	0.48844677045161583	9.461307738452309	-0.4904678528348362	-4.698051771778615	-11.578598641709458	2.730138893022278	0.013493253373313342	-1.1169415292353824	-0.04047976011994003	
1.7375805820287146E12	0.3291237141346106	9.373493975903616	-0.38225093153335266	0.39429735324704257	9.398920215956808	-0.5174080780565198	-4.916515106634533	-11.412953453702169	3.1369624245559713	0.014992503748125937	-1.128935532233883	-0.04497751124437781	
1.7375805820336895E12	0.30539114763222475	9.361445783132531	-0.41863283551162955	0.39429735324704257	9.398920215956808	-0.5174080780565198	-5.092768404265072	-12.042405168129864	3.916962937992651	0.014992503748125937	-1.128935532233883	-0.04497751124437781	
1.7375805820386643E12	0.1855236163130675	9.518072289156628	-0.48007247468024283	0.30526806783273563	9.362927414517095	-0.5694080105744257	-5.390086099504576	-12.274308431340069	4.552254667149777	0.005997001499250375	-1.1274362818590704	-0.046476761619190406	
1.737580582043639E12	0.22070082148411665	9.240963855421688	-0.3833351604598576	0.30526806783273563	9.362927414517095	-0.5694080105744257	-5.486320135240756	-12.456518138148086	4.987296831885621	0.005997001499250375	-1.1274362818590704	-0.046476761619190406	
1.7375805820486138E12	0.015902024255405784	9.301204819277109	-0.3853831484321447	0.16262470511148483	9.324535092981403	-0.5965932232416779	-4.989097540409862	-12.522776213351001	5.801025097647732	0.005997001499250375	-1.118440779610195	-0.047976011994003	
1.7375805820535886E12	-0.0804738803228111	9.373493975903616	-0.3863469074779269	0.16262470511148483	9.324535092981403	-0.5965932232416779	-4.154744917082525	-12.572469769753187	6.592409012999869	0.005997001499250375	-1.118440779610195	-0.047976011994003	
1.7375805820585632E12	-0.10480879622881085	9.373493975903616	-0.36249387109481823	0.029906179133029807	9.314937012597479	-0.5426530675059937	-2.8890589405933063	-12.589034288553917	7.129477520280069	0.004497751124437781	-1.1304347826086956	-0.03298350824587706	
1.737580582063538E12	-0.1509487605456322	9.373493975903616	-0.5677745478464201	0.029906179133029807	9.314937012597479	-0.5426530675059937	-1.215841977750286	-12.473082656948815	8.261073732149601	0.004497751124437781	-1.1304347826086956	-0.03298350824587706	
1.737580582068513E12	-0.11613296501675133	9.373493975903616	-0.4348962694092037	-0.03585620549803429	9.31733653269346	-0.6032636281005948	-0.015090117174234974	-12.141792280934238	9.165979558158567	0.005997001499250375	-1.1169415292353824	-0.05247376311844078	
1.7375805820734875E12	-0.11601249513602857	9.44578313253012	-0.4469432574814808	-0.03585620549803429	9.31733653269346	-0.6032636281005948	0.7885011498880947	-12.25774391253934	9.97071196371733	0.014992503748125937	-1.1469265367316341	-0.05547226386806597	
1.7375805820784624E12	-0.09179804911075157	9.433734939759036	-0.4587493057923123	-0.057570146350897154	9.355728854229154	-0.6723009965429014	1.5595729436349932	-12.4068245817459	10.964604564525182	0.014992503748125937	-1.1469265367316341	-0.05547226386806597	
1.7375805820834373E12	-0.055416145132474705	9.421686746987952	-0.48248187229469824	-0.057570146350897154	9.355728854229154	-0.6723009965429014	2.088891215664943	-12.589034288553917	11.631552246675675	0.0074962518740629685	-1.1274362818590704	-0.035982008995502246	
1.7375805820884119E12	-0.0671017235625835	9.46987951807229	-0.5187433063922523	-0.06657649966945833	9.360527894421114	-0.6838770950490234	2.708070515595262	-13.201921484180884	12.500758547671353	0.0074962518740629685	-1.1274362818590704	-0.035982008995502246	
1.7375805820933867E12	-0.018672831512029517	9.493975903614459	-0.5423554030139155	-0.06657649966945833	9.360527894421114	-0.6838770950490234	3.4991608163910475	-13.632598972999833	13.024194011737501	0.004497751124437781	-1.1199400299850075	-0.04047976011994003	
1.7375805820983616E12	0.05372956680235591	9.46987951807229	-0.5536795718018559	-0.0013731796147869492	9.37252549490102	-0.7107867467433315	4.136972962695869	-13.83137319860858	13.561509243429889	0.004497751124437781	-1.1199400299850075	-0.04047976011994003	
1.7375805821033362E12	0.13805848330829568	9.590361445783133	-0.5528362826367965	-0.0013731796147869492	9.37252549490102	-0.7107867467433315	4.744389089512731	-14.82524432665231	14.075639287624213	0.004497751124437781	-1.12143928035982	-0.04497751124437781	
1.737580582108311E12	0.10227892873363266	9.771084337349398	-0.5893386564957962	0.08416967229850021	9.516496700659868	-0.7154120213915237	5.322290406603873	-15.189663740268344	14.478463168096658	0.004497751124437781	-1.12143928035982	-0.04497751124437781	
1.737580582113286E12	0.22226692993351266	9.771084337349398	-0.53994600539946	0.08416967229850021	9.516496700659868	-0.7154120213915237	5.183912083352181	-16.69703495113467	14.533753379942738	0.010494752623688156	-1.1244377811094453	-0.04497751124437781	
1.7375805821182605E12	0.13781754354685014	9.93975903614458	-0.5287423064922423	0.19874463760918906	9.742051589682063	-0.6704882314987138	5.5087469996597855	-17.591518966374025	14.209526680269486	0.010494752623688156	-1.1244377811094453	-0.04497751124437781	
1.7375805821232354E12	0.33020794306111556	10.048192771084338	-0.49067382418384664	0.19874463760918906	9.742051589682063	-0.6704882314987138	5.251650643027236	-18.767599801225774	13.885471685025264	0.01199400299850075	-1.1244377811094453	-0.047976011994003	
1.7375805821282102E12	0.37911871463456065	10.204819277108435	-0.5624738730946183	0.336902674523184	10.039592081583683	-0.6499836106857596	4.293015984824524	-19.77803544807023	13.271142712034566	0.01199400299850075	-1.1244377811094453	-0.047976011994003	
1.7375805821331848E12	0.4739285107633815	10.337349397590362	-0.40489926910923363	0.336902674523184	10.039592081583683	-0.6499836106857596	3.3229773609191486	-20.37435812489647	12.265816741163217	0.0074962518740629685	-1.1334332833583207	-0.047976011994003	
1.7375805821381597E12	0.5340429812440443	10.361445783132531	-0.3922499316333427	0.4815379791316193	10.279544091181762	-0.6069220512691846	2.228067293956429	-20.52343879410303	11.496486530850193	0.0074962518740629685	-1.1334332833583207	-0.047976011994003	
1.7375805821431345E12	0.6293346568957562	10.3855421686747	-0.2828632799370665	0.4815379791316193	10.279544091181762	-0.6069220512691846	0.7347853605908474	-20.705648500911046	10.748110189001007	0.01199400299850075	-1.1244377811094453	-0.038980509745127435	
1.7375805821481091E12	0.6640299825439143	10.3855421686747	-0.1379380134275729	0.628507025146027	10.409118176364727	-0.4496006799341429	-0.33943961935810313	-20.49030975650157	9.441664845458089	0.01199400299850075	-1.1244377811094453	-0.038980509745127435	
1.737580582153084E12	0.6505373559029639	10.3855421686747	0.0065053735590296395	0.6226027850021296	10.409118176364727	-0.15438867273927265	-0.17108117292837272	-20.904422726519794	7.919755883955187	0.014992503748125937	-1.106446776611694	-0.046476761619190406	
1.7375805821580588E12	0.6493326570957362	10.373493975903616	0.12697525428180073	0.6743744019381819	10.385122975404919	-0.20255381515390466	0.92711620268785	-21.020374358124894	6.828961660770884	0.014992503748125937	-1.106446776611694	-0.046476761619190406	
1.7375805821630334E12	0.6243953917861226	10.421686746987952	0.21106323102629496	0.6215079993508572	10.36112777444511	0.015824050932884692	2.7572060012294255	-21.550438959748217	6.05581641610796	0.022488755622188904	-1.143928035982009	-0.06896551724137931	
1.7375805821680083E12	0.5035641014211831	10.397590361445785	0.24599949643589858	0.6215079993508572	10.36112777444511	0.015824050932884692	4.911717351802538	-21.765777704157692	4.999780899378706	0.022488755622188904	-1.143928035982009	-0.06896551724137931	
1.7375805821729832E12	0.4434496309405204	10.349397590361447	0.2333501589600076	0.43438137883592653	10.385122975404919	0.01880634688727581	6.519621727309638	-21.467616365744572	5.005668004105069	0.014992503748125937	-1.1169415292353824	-0.043478260869565216	
1.7375805821779578E12	0.31117370190691773	10.361445783132531	0.20793101412750292	0.43438137883592653	10.385122975404919	0.01880634688727581	6.981593883807989	-20.142454861686268	4.750259398680476	0.014992503748125937	-1.1169415292353824	-0.043478260869565216	
1.7375805821829326E12	0.2016665803299188	10.27710843373494	0.31526967785149196	0.20988658662218873	10.236352729454108	0.15809561115384257	6.161144943744509	-19.181712771243994	4.0999007250896105	0.025487256371814093	-1.1244377811094453	-0.043478260869565216	
1.7375805821879075E12	0.043248687179474825	10.19277108433735	0.49440839048625257	0.20988658662218873	10.236352729454108	0.15809561115384257	5.368000746188802	-18.68477720722213	3.7818549370156616	0.025487256371814093	-1.1244377811094453	-0.043478260869565216	
1.737580582192882E12	-0.07782354294691013	10.120481927710843	0.5534386320404104	-0.041810069453287704	10.106778644271145	0.38727021631334585	5.092634557950223	-18.055325492794434	3.753389534227257	0.010494752623688156	-1.1244377811094453	-0.04497751124437781	
1.737580582197857E12	-0.17407897764440422	10.120481927710843	0.5404278849223512	-0.041810069453287704	10.106778644271145	0.38727021631334585	5.231087406631433	-17.293357627960905	3.6906467794294415	0.010494752623688156	-1.1244377811094453	-0.04497751124437781	
1.7375805822028318E12	-0.24599949643589858	10.144578313253012	0.5035641014211831	-0.23087524255581887	10.12357528494301	0.37170670053921223	5.892147290096143	-16.432002650323007	3.4345818632799707	0.0074962518740629685	-1.1244377811094453	-0.038980509745127435	
1.7375805822078064E12	-0.32948512377677897	10.19277108433735	0.418391895750184	-0.23087524255581887	10.12357528494301	0.37170670053921223	6.032740648927754	-15.139970183866158	3.1577880934420723	0.0074962518740629685	-1.1244377811094453	-0.038980509745127435	
1.7375805822127812E12	-0.341050232326165	10.216867469879519	0.3700834735803528	-0.32685628341763184	10.197960407918416	0.20540077596242423	4.97755066758161	-13.11909889017724	3.0106300259124894	0.010494752623688156	-1.128935532233883	-0.04047976011994003	
1.737580582217756E12	-0.38911771473455065	10.240963855421688	0.3575546059851846	-0.32685628341763184	10.197960407918416	0.20540077596242423	3.6832940237138327	-11.67798575451383	2.2678411201940203	0.010494752623688156	-1.128935532233883	-0.04047976011994003	
1.7375805822227307E12	-0.4250177391899364	10.289156626506024	0.33309922019846205	-0.40103950204510114	10.289142171565686	0.21941159186244924	2.0371014238713605	-10.916017889680305	1.4965957445638036	0.017991004497751123	-1.1274362818590704	-0.047976011994003	
1.7375805822277056E12	-0.41285028123693657	10.373493975903616	0.32117270200690773	-0.40103950204510114	10.289142171565686	0.21941159186244924	1.0224335292036357	-9.922146761636574	0.36001614548635547	0.017991004497751123	-1.1274362818590704	-0.047976011994003	
1.7375805822326804E12	-0.4004418835224911	10.421686746987952	0.2851522076707992	-0.3781115872348969	10.39472105578884	0.11227682132913808	0.31556352169515567	-8.646678813980452	-0.9284808065752885	0.008995502248875561	-1.1304347826086956	-0.041979010494752625	
1.737580582237655E12	-0.31599249713582855	10.433734939759036	0.27394850876358146	-0.3781115872348969	10.39472105578884	0.11227682132913808	1.3517124329397794	-8.613549776378996	-5.002790001481768	0.008995502248875561	-1.1304347826086956	-0.041979010494752625	
1.73758058224263E12	-0.37646837725865967	10.44578313253012	0.2974401355045218	-0.35697542347267247	10.464307138572284	0.09472960319482543	1.808162371756837	-6.609243001490806	-3.174583270630085	0.01199400299850075	-1.12143928035982	-0.05397301349325337	
1.7375805822476047E12	-0.31551061761293747	10.433734939759036	0.22576055647447302	-0.35697542347267247	10.464307138572284	0.09472960319482543	2.3891053965280316	-6.244823587874772	-4.607323726310041	0.01199400299850075	-1.12143928035982	-0.05397301349325337	
1.7375805822525793E12	-0.2670817255623835	10.325301204819278	0.2021484598528099	-0.2945253702842057	10.377924415116976	-0.025463587406343594	3.726285086831978	-5.963226768262381	-6.625445896061532	0.017991004497751123	-1.1484257871064467	-0.06146926536731634	
1.7375805822575542E12	-0.21805048410821568	10.253012048192772	0.11830142286976121	-0.2945253702842057	10.377924415116976	-0.025463587406343594	5.002724458697166	-5.3006460162332285	-7.1637169263781795	0.017991004497751123	-1.1484257871064467	-0.06146926536731634	
1.737580582262529E12	-0.16865783301187953	10.27710843373494	-0.0016865783301187956	-0.1783228591604225	10.293941211757648	-0.1773905292767959	5.578343448697408	-4.3399039257909555	-8.064053904962913	0.022488755622188904	-1.1319340329835081	-0.041979010494752625	
1.7375805822675037E12	-0.0362614340975541	10.240963855421688	0.011685578430108796	-0.1783228591604225	10.293941211757648	-0.1773905292767959	6.2396462303301705	-4.008613549776379	-9.875802206064481	0.022488755622188904	-1.1319340329835081	-0.041979010494752625	
1.7375805822724785E12	-0.12034941084204832	10.240963855421688	-0.01325168687950482	-0.06215565496122777	10.169166166766646	-0.2120786838092815	6.083036661363907	-2.6337584893158854	-9.528780990908238	0.013493253373313342	-1.1379310344827587	-0.04947526236881559	
1.7375805822774534E12	-0.03638190397827687	10.036144578313253	0.023732566502385907	-0.06215565496122777	10.169166166766646	-0.2120786838092815	6.1730874772517925	-2.037435812489647	-9.345501170814758	0.013493253373313342	-1.1379310344827587	-0.04947526236881559	
1.737580582282428E12	0.024937265309613616	9.903614457831326	-0.08408797674449422	0.051411801224189015	9.883623275344931	-0.23225287876141376	6.041344819132289	-2.6337584893158854	-9.953777472187562	0.019490254872563718	-1.1274362818590704	-0.050974512743628186	
1.7375805822874028E12	0.1450457363902164	9.74698795180723	-0.046742313720435184	0.051411801224189015	9.883623275344931	-0.23225287876141376	6.399252677399233	-3.180387609739937	-10.522511231500708	0.019490254872563718	-1.1274362818590704	-0.050974512743628186	
1.7375805822923777E12	0.20516020687087919	9.518072289156628	-0.03409297624454422	0.19919250352318302	9.631673665266947	-0.2309877627642325	6.746914237555751	-3.6276296173596156	-10.066615179771171	0.014992503748125937	-1.1154422788605696	-0.041979010494752625	
1.7375805822973523E12	0.10950712157699892	9.602409638554217	-0.10733866372398905	0.19919250352318302	9.631673665266947	-0.2309877627642325	7.117641913168377	-3.0975650157362926	-8.85454353735838	0.014992503748125937	-1.1154422788605696	-0.041979010494752625	
1.7375805823023271E12	0.20455785746726532	9.493975903614459	0.02614196411684133	0.25681432440218277	9.456508698260347	-0.22524277900059503	6.394406481290389	-3.4122908729501407	-8.506498052469205	0.022488755622188904	-1.12143928035982	-0.047976011994003	
1.737580582307302E12	0.30057235240331387	9.433734939759036	0.06324668737945482	0.25681432440218277	9.456508698260347	-0.22524277900059503	5.930671239379646	-4.654629783004803	-8.074780905805362	0.022488755622188904	-1.12143928035982	-0.047976011994003	
1.7375805823122766E12	0.2534686290407104	9.373493975903616	-0.04565808479393024	0.32610804562000684	9.338932213557287	-0.22572560663544736	5.097258341605879	-5.665065429849262	-7.428743808367354	0.010494752623688156	-1.1244377811094453	-0.04947526236881559	
1.7375805823172515E12	0.351049232426155	9.361445783132531	-0.16516420647091917	0.32610804562000684	9.338932213557287	-0.22572560663544736	5.57895874537396	-6.5429849262878905	-6.5941900044709465	0.010494752623688156	-1.1244377811094453	-0.04947526236881559	
1.7375805823222263E12	0.3390022443538779	9.301204819277109	-0.16528467635164193	0.34445729064939967	9.247750449910017	-0.33487377034527094	4.97530053195417	-7.006791452708298	-5.9527178202255735	0.01649175412293853	-1.113943028485757	-0.04947526236881559	
1.737580582327201E12	0.3143059188057098	9.144578313253012	-0.10529067575170194	0.34445729064939967	9.247750449910017	-0.33487377034527094	4.755283278004876	-7.387775385125062	-5.3905023793544835	0.01649175412293853	-1.113943028485757	-0.04947526236881559	
1.7375805823321758E12	0.2905733523033239	9.337349397590362	-0.14167257972997882	0.32110389381059934	9.180563887222554	-0.32193833949070655	4.4098560174402355	-7.785323836342553	-4.53843482212461	0.01199400299850075	-1.1274362818590704	-0.041979010494752625	
1.7375805823371506E12	0.2780444847081557	9.228915662650603	-0.09360509732159314	0.32110389381059934	9.180563887222554	-0.32193833949070655	4.28167750660106	-7.901275467947656	-3.9717322833832016	0.01199400299850075	-1.1274362818590704	-0.041979010494752625	
1.7375805823421252E12	0.31334215975992763	9.180722891566266	-0.008914771173485062	0.28929265245236374	9.156568686262746	-0.23253100599001153	4.4002840847816005	-8.580420738777537	-3.581241556261106	0.019490254872563718	-1.1304347826086956	-0.0704647676161919	
1.7375805823471E12	0.25370956880215595	9.289156626506024	-0.06975206093848446	0.28929265245236374	9.156568686262746	-0.23253100599001153	4.904013833221436	-9.375517641212522	-3.4182286513931546	0.019490254872563718	-1.1304347826086956	-0.0704647676161919	
1.737580582352075E12	0.21805048410821568	9.337349397590362	-0.11830142286976121	0.22943386106383098	9.202159568086381	-0.2419009053855452	5.313786353085649	-9.723372536027828	-3.04785429784515	0.020989505247376312	-1.1244377811094453	-0.04497751124437781	
1.7375805823570496E12	0.18142764036849326	9.27710843373494	-0.07047488022282108	0.22943386106383098	9.202159568086381	-0.2419009053855452	5.172759756530098	-9.607420904422726	-2.7277367556132006	0.020989505247376312	-1.1244377811094453	-0.04497751124437781	
1.7375805823620244E12	0.1929927489178793	9.337349397590362	-0.02216645805298988	0.15779268287803735	9.281343731253749	-0.23951867046075834	4.862424556150944	-9.375517641212522	-2.3220880806379434	0.020989505247376312	-1.1229385307346327	-0.04947526236881559	
1.7375805823669993E12	0.14347962794082036	9.397590361445783	0.10986853121916723	0.15779268287803735	9.281343731253749	-0.23951867046075834	4.491892683572545	-9.375517641212522	-2.0223464583264574	0.020989505247376312	-1.1229385307346327	-0.04947526236881559	
1.7375805823719739E12	0.09649637445893965	9.373493975903616	-0.01108322902649494	0.12836350997051346	9.353329334133173	-0.1537413183871062	4.505010051067923	-9.375517641212522	-1.8026896397172254	0.008995502248875561	-1.1229385307346327	-0.04947526236881559	
1.7375805823769487E12	0.11926518191554339	9.433734939759036	0.1216745795299988	0.12836350997051346	9.353329334133173	-0.1537413183871062	4.346764917979773	-9.193307934404505	-1.2921120123724852	0.008995502248875561	-1.1229385307346327	-0.04947526236881559	
1.7375805823819236E12	0.11926518191554339	9.518072289156628	0.1216745795299988	0.12165683168583627	9.418116376724655	-0.049354286370335704	4.483976188483666	-9.176743415603775	-1.2306969494385802	0.010494752623688156	-1.1229385307346327	-0.04947526236881559	
1.7375805823868982E12	0.09432791660592976	9.506024096385543	0.20576255627449302	0.12165683168583627	9.418116376724655	-0.049354286370335704	4.75930759818847	-9.458340235216166	-1.198753693272698	0.010494752623688156	-1.1229385307346327	-0.04947526236881559	
1.737580582391873E12	0.10649537455892964	9.578313253012048	0.1938360380829387	0.1105118487835465	9.506898620275944	0.04600109430997207	5.200544488937003	-9.458340235216166	-0.9120292918625834	0.019490254872563718	-1.1259370314842578	-0.050974512743628186	
1.737580582396848E12	0.08203998877220711	9.566265060240964	0.2297360625383245	0.1105118487835465	9.506898620275944	0.04600109430997207	5.245619580500624	-9.657114460824912	-0.8253577437836688	0.019490254872563718	-1.1259370314842578	-0.050974512743628186	
1.7375805824018225E12	0.09384603708303868	9.626506024096386	0.25395050856360146	0.103107725294104	9.586082783443311	0.06978694545646297	5.299406810209626	-9.673678979625642	-0.07850644209579359	0.017991004497751123	-1.1274362818590704	-0.05697151424287856	
1.7375805824067974E12	0.04577855467465301	9.66265060240964	0.24142164096843327	0.103107725294104	9.586082783443311	0.06978694545646297	5.471015406882971	-9.392082160013251	-0.3940368598132117	0.017991004497751123	-1.1274362818590704	-0.05697151424287856	
1.7375805824117722E12	0.009517120577098916	9.674698795180724	0.2531072193985421	0.03895476761302231	9.626874625074985	0.044178478471286066	5.468905202020748	-8.762630445585556	-0.18301637359080988	0.014992503748125937	-1.1274362818590704	-0.050974512743628186	
1.7375805824167468E12	-0.0019275180915643377	9.771084337349398	0.19275180915643375	0.03895476761302231	9.626874625074985	0.044178478471286066	5.586353998289507	-8.100049693556402	0.3232525447093251	0.014992503748125937	-1.1274362818590704	-0.050974512743628186	
1.7375805824217217E12	-0.05071781978428663	9.686746987951807	0.2525048699949282	-0.009955279404888181	9.655668866226755	0.06473856608736514	5.954423083077512	-8.331952956766605	0.2697897014371634	0.022488755622188904	-1.1199400299850075	-0.05247376311844078	
1.7375805824266965E12	-0.026744313520455185	9.686746987951807	0.26479279782865084	-0.009955279404888181	9.655668866226755	0.06473856608736514	5.57055142771947	-7.569985091933079	0.37211603356602246	0.022488755622188904	-1.1199400299850075	-0.05247376311844078	
1.7375805824316711E12	-0.002891277137346507	9.63855421686747	0.2891277137346506	-0.010735597834538877	9.636472705458907	0.10375448756989998	4.94217927598918	-7.155872121914858	0.42219491256741865	0.008995502248875561	-1.1319340329835081	-0.06596701649175413	
1.737580582436646E12	0.04529667515176193	9.614457831325302	0.2896095932575417	-0.010735597834538877	9.636472705458907	0.10375448756989998	5.112722833507479	-6.460162332284247	0.2131684103547665	0.008995502248875561	-1.1319340329835081	-0.06596701649175413	
1.7375805824416208E12	0.00879430129276229	9.590361445783133	0.32538914783220474	0.032080854913921354	9.605278944211157	0.15692723120924387	4.777437535451939	-5.913533211860195	0.0510397166743918	0.019490254872563718	-1.128935532233883	-0.046476761619190406	
1.7375805824465955E12	0.03240639791442542	9.602409638554217	0.3738180398827587	0.032080854913921354	9.605278944211157	0.15692723120924387	4.545665884108839	-5.3006460162332285	0.2573013287791688	0.019490254872563718	-1.128935532233883	-0.046476761619190406	
1.7375805824515703E12	0.1767293150203052	9.602409638554217	0.39935765459598616	0.09341597051269736	9.571685662867425	0.20795436120115995	4.333631865191032	-5.085307271823753	0.02119326650162818	0.013493253373313342	-1.1229385307346327	-0.04947526236881559	
1.7375805824565452E12	0.14107023032636495	9.626506024096386	0.3508082926647094	0.09341597051269736	9.571685662867425	0.20795436120115995	4.089089965802386	-5.019049196620838	-0.026913884985980442	0.013493253373313342	-1.1229385307346327	-0.04947526236881559	
1.7375805824615198E12	0.11613296501675133	9.650602409638555	0.4348962694092037	0.16467517887194263	9.557288542291541	0.22467061760379173	3.428284954147145	-4.041742587377836	0.20366385021662392	0.019490254872563718	-1.1229385307346327	-0.050974512743628186	
1.7375805824664946E12	0.14034741104202833	9.493975903614459	0.4230902210983721	0.16467517887194263	9.557288542291541	0.22467061760379173	2.924560174069277	-3.2963392413450388	0.04015410915189012	0.019490254872563718	-1.1229385307346327	-0.050974512743628186	
1.7375805824714695E12	0.04385103658308868	9.590361445783133	0.434173450124867	0.15244255889876418	9.535692861427714	0.2589344107199891	3.08987906405598	-2.9981779029319195	0.3535943600988093	0.022488755622188904	-1.1319340329835081	-0.05247376311844078	
1.737580582476444E12	0.12805948320830568	9.506024096385543	0.4470637273622035	0.15244255889876418	9.535692861427714	0.2589344107199891	3.0428030715934264	-3.263210203743581	0.46701290191308126	0.022488755622188904	-1.1319340329835081	-0.05247376311844078	
1.737580582481419E12	0.09107522982641494	9.493975903614459	0.531031234225975	0.13314933531548875	9.490101979604079	0.29980806101540103	2.9317321372029013	-2.335597150902766	0.8543513639365076	0.010494752623688156	-1.1229385307346327	-0.050974512743628186	
1.7375805824863938E12	0.043248687179474825	9.530120481927712	0.49440839048625257	0.13314933531548875	9.490101979604079	0.29980806101540103	3.0360370680457884	-1.4079840980619511	1.1436132566769175	0.010494752623688156	-1.1229385307346327	-0.050974512743628186	
1.7375805824913684E12	0.06770407296619735	9.542168674698795	0.4585083660308668	0.05598823731215376	9.46610677864427	0.347239404600164	3.2644922099994913	-1.027000165645188	1.2690025835117986	0.022488755622188904	-1.1244377811094453	-0.047976011994003	
1.7375805824963433E12	0.06758360308547458	9.55421686746988	0.4705553541031439	0.05598823731215376	9.46610677864427	0.347239404600164	3.4755792694451917	-0.5466291204240517	1.5998065929999332	0.022488755622188904	-1.1244377811094453	-0.047976011994003	
1.737580582501318E12	0.055416145132474705	9.590361445783133	0.48248187229469824	0.08451508993820826	9.52369526094781	0.306578066599979	3.621102562783643	0.7288388272320688	2.361412940624966	0.013493253373313342	-1.1244377811094453	-0.04947526236881559	
1.7375805825062927E12	0.019034241154197832	9.602409638554217	0.5062144387970842	0.08451508993820826	9.52369526094781	0.306578066599979	4.1748516908114714	1.4742421732648665	2.116668591134661	0.013493253373313342	-1.1244377811094453	-0.04947526236881559	
1.7375805825112676E12	-0.005059734990356387	9.710843373493976	0.5059734990356386	0.0403081135932159	9.58848230353929	0.3229315027872421	4.513484298660953	2.550935895312241	1.9440663054207101	0.013493253373313342	-1.1154422788605696	-0.046476761619190406	
1.7375805825162424E12	0.054572855967415304	9.795180722891567	0.566810788800638	0.0403081135932159	9.58848230353929	0.3229315027872421	4.679665685966309	2.9981779029319195	2.1712568245023385	0.013493253373313342	-1.1154422788605696	-0.046476761619190406	
1.737580582521217E12	0.08926818161557339	9.66265060240964	0.7117360553101316	0.08439335226065854	9.684463107378523	0.42813839158601125	5.032779792417026	3.594500579758158	2.0818982468119307	0.019490254872563718	-1.1109445277361318	-0.06446776611694152	
1.737580582526192E12	0.17395850776368146	9.63855421686747	0.6764383802583597	0.08439335226065854	9.684463107378523	0.42813839158601125	5.204142293000553	3.4122908729501407	1.7909774380764218	0.019490254872563718	-1.1109445277361318	-0.06446776611694152	
1.7375805825311667E12	0.07806448270835567	9.686746987951807	0.6272866689234691	0.10451808340455361	9.737252549490101	0.4611628043681623	5.550032487141398	3.1306940533377503	2.424010091373178	0.022488755622188904	-1.136431784107946	-0.05247376311844078	
1.7375805825361414E12	0.006625843439752409	9.783132530120483	0.5422349331331927	0.10451808340455361	9.737252549490101	0.4611628043681623	5.520569017156011	3.246645684942852	2.3075699536178815	0.022488755622188904	-1.136431784107946	-0.05247376311844078	
1.7375805825411162E12	0.06649937415896964	9.74698795180723	0.5789782467536378	0.11426294654915954	9.730053989202158	0.4358134115720461	5.842553118323363	4.538678151399702	2.268424767969977	0.019490254872563718	-1.1259370314842578	-0.043478260869565216	
1.737580582546091E12	0.14998500149985	9.686746987951807	0.664150452424637	0.11426294654915954	9.730053989202158	0.4358134115720461	5.642134382664264	5.1515653470266685	2.4021819479686592	0.019490254872563718	-1.1259370314842578	-0.043478260869565216	
1.7375805825510657E12	0.12565008559385024	9.650602409638555	0.6880034888077458	0.12628796292848105	9.636472705458907	0.4119297981486952	5.660019499161744	5.731323505052178	2.145063866367675	0.01199400299850075	-1.1229385307346327	-0.047976011994003	
1.7375805825560405E12	0.14974406173840446	9.650602409638555	0.6882444285691912	0.12628796292848105	9.636472705458907	0.4119297981486952	5.813183381327448	6.642372039092264	2.142611331267435	0.01199400299850075	-1.1229385307346327	-0.047976011994003	
1.7375805825610154E12	0.10107422992640494	9.578313253012048	0.7359505013354086	0.1029429870009286	9.540491901619676	0.5399176245494125	6.135383273296442	7.238694715918502	2.0818870654553026	0.013493253373313342	-1.1199400299850075	-0.050974512743628186	
1.73758058256599E12	0.05264533787585097	9.578313253012048	0.7595625979570717	0.1029429870009286	9.540491901619676	0.5399176245494125	6.382979519894477	7.338081828722875	1.8245594960041176	0.013493253373313342	-1.1199400299850075	-0.050974512743628186	
1.7375805825709648E12	0.0162634338975741	9.614457831325302	0.7832951644594577	0.03631405205892533	9.506898620275944	0.6381080206103154	7.105043425779067	7.669372204737452	1.593666610454721	0.017991004497751123	-1.1154422788605696	-0.050974512743628186	
1.7375805825759397E12	0.01650437365901964	9.650602409638555	0.7592011883149035	0.03631405205892533	9.506898620275944	0.6381080206103154	7.5002648899744955	8.497598144773894	1.887752962734138	0.017991004497751123	-1.1154422788605696	-0.050974512743628186	
1.7375805825809143E12	0.017468132704801808	9.590361445783133	0.6628252837366866	-0.005722082259884205	9.557288542291541	0.5459193554884365	7.503974224304175	9.42521119761471	1.5168195297663112	0.008995502248875561	-1.1199400299850075	-0.05547226386806597	
1.7375805825858892E12	0.018070482108415664	9.66265060240964	0.602590343375301	-0.005722082259884205	9.557288542291541	0.5459193554884365	7.996849002439656	10.866324333278117	1.233935896922601	0.008995502248875561	-1.1199400299850075	-0.05547226386806597	
1.737580582590864E12	-0.06529467535174194	9.831325301204819	0.5053711496320248	-0.039691458238900905	9.6748650269946	0.39681309670255127	8.580989181593477	12.456518138148086	1.0128735711271428	0.01199400299850075	-1.1319340329835081	-0.050974512743628186	
1.7375805825958386E12	-0.06469232594812807	9.843373493975903	0.4451362092706392	-0.039691458238900905	9.6748650269946	0.39681309670255127	8.965513006946866	13.947324830213681	0.8453302394634523	0.01199400299850075	-1.1319340329835081	-0.050974512743628186	
1.7375805826008135E12	-0.0054211446325247	9.783132530120483	0.5421144632524699	-0.05014288294136625	9.742051589682063	0.3420171262830933	8.79731465265239	14.65959913864502	0.8198364192939663	0.01199400299850075	-1.1244377811094453	-0.04497751124437781	
1.7375805826057883E12	-0.08999100089991001	9.710843373493976	0.5653651502319648	-0.05014288294136625	9.742051589682063	0.3420171262830933	8.689592189060093	15.736292860692396	0.8723278014944591	0.01199400299850075	-1.1244377811094453	-0.04497751124437781	
1.737580582610763E12	-0.19817295378895844	9.63855421686747	0.5401869451609056	-0.11164208993195159	9.686862627474504	0.41466800699018913	8.719655994184127	16.92893821434487	0.9287344253853292	0.008995502248875561	-1.1259370314842578	-0.06746626686656672	
1.7375805826157378E12	-0.17431991740584976	9.614457831325302	0.5645218610669054	-0.11164208993195159	9.686862627474504	0.41466800699018913	9.259902049375288	17.144276958754347	0.5029037914145988	0.008995502248875561	-1.1259370314842578	-0.06746626686656672	
1.7375805826207126E12	-0.25864883391178956	9.530120481927712	0.563678571901846	-0.19238865780395706	9.574085182963406	0.41042596179138696	9.241052251194855	18.900115951631605	0.8564900413107266	0.01649175412293853	-1.1244377811094453	-0.05397301349325337	
1.7375805826256873E12	-0.28310421969851207	9.530120481927712	0.5995785963572318	-0.19238865780395706	9.574085182963406	0.41042596179138696	9.440795460397878	20.65595494450886	0.7902855069198298	0.01649175412293853	-1.1244377811094453	-0.05397301349325337	
1.737580582630662E12	-0.3681559554887885	9.457831325301205	0.671017235625835	-0.29913970999070233	9.490101979604079	0.43620028013558015	10.343712040176575	21.981116448567168	0.8508480497238968	0.01649175412293853	-1.1274362818590704	-0.05247376311844078	
1.737580582635637E12	-0.4046583293477881	9.46987951807229	0.706796790200498	-0.29913970999070233	9.490101979604079	0.43620028013558015	10.924732788299055	22.594003644194135	0.9417288270623908	0.01649175412293853	-1.1274362818590704	-0.05247376311844078	
1.7375805826406116E12	-0.42827042596945125	9.542168674698795	0.658367898149944	-0.4227139818302812	9.478104379124174	0.4948214933616356	11.93945147113874	22.991552095411627	0.5418360407966659	0.014992503748125937	-1.128935532233883	-0.05397301349325337	
1.7375805826455864E12	-0.4395945947573917	9.602409638554217	0.5859654998355586	-0.4227139818302812	9.478104379124174	0.4948214933616356	12.508941893272336	23.819778035448067	0.2543558488766483	0.014992503748125937	-1.128935532233883	-0.05397301349325337	
1.7375805826505613E12	-0.3785163652309468	9.74698795180723	0.5022389327332327	-0.43668981017291164	9.612477504499099	0.38529882273334265	11.81687057932357	25.39340732151731	0.5487766771374644	0.0074962518740629685	-1.1259370314842578	-0.05547226386806597	
1.737580582655536E12	-0.4027308112562238	9.759036144578314	0.5140449810440643	-0.43668981017291164	9.612477504499099	0.38529882273334265	11.559610761862453	27.314891502401853	0.24106776475007857	0.0074962518740629685	-1.1259370314842578	-0.05547226386806597	
1.7375805826605107E12	-0.3543019192056698	9.74698795180723	0.4904328844224011	-0.3539626654759111	9.739652069586082	0.2905120266823935	11.445414267074334	28.78913367566672	0.9409622665328475	0.025487256371814093	-1.1229385307346327	-0.04947526236881559	
1.7375805826654856E12	-0.31779954534667015	9.74698795180723	0.4546533298477381	-0.3539626654759111	9.739652069586082	0.2905120266823935	11.81810486713035	29.136988570482025	0.4253478964597427	0.025487256371814093	-1.1229385307346327	-0.04947526236881559	
1.7375805826704602E12	-0.2702139424611756	9.63855421686747	0.5153701497320148	-0.30620914901750873	9.727654469106177	0.3277784670417172	12.342960555023257	30.147424217326485	0.007160424167396928	0.020989505247376312	-1.1274362818590704	-0.05397301349325337	
1.737580582675435E12	-0.22238739981423544	9.771084337349398	0.5519929934717371	-0.30620914901750873	9.727654469106177	0.3277784670417172	12.575798235754144	32.035779360609574	-0.30570412671611824	0.020989505247376312	-1.1274362818590704	-0.05397301349325337	
1.73758058268041E12	-0.2234716287407404	9.686746987951807	0.6604158861222311	-0.22682191721829237	9.718056388722255	0.3999873158799762	12.826764482718936	32.06890839821103	-0.9000317328429608	0.0074962518740629685	-1.1244377811094453	-0.050974512743628186	
1.7375805826853845E12	-0.17564508609380025	9.72289156626506	0.6970387298619536	-0.22682191721829237	9.718056388722255	0.3999873158799762	13.385493343192826	31.273811495776044	-1.6427493269395355	0.0074962518740629685	-1.1244377811094453	-0.050974512743628186	
1.7375805826903594E12	-0.15155110994924603	9.783132530120483	0.697279669623399	-0.1730624777959009	9.698860227954409	0.4833779313654836	14.11585232990859	30.544972668543977	-2.703150295606252	0.014992503748125937	-1.12143928035982	-0.05997001499250375	
1.7375805826953342E12	-0.1025198684950782	9.831325301204819	0.6134326326403504	-0.1730624777959009	9.698860227954409	0.4833779313654836	14.248996163224295	30.727182375351994	-3.766385082000569	0.014992503748125937	-1.12143928035982	-0.05997001499250375	
1.7375805827003088E12	-0.12528867595168194	9.855421686746988	0.48067482408385664	-0.12750048365063765	9.778044391121774	0.3992736051646768	14.096841507227706	31.422892164982606	-3.864855163811879	0.004497751124437781	-1.118440779610195	-0.06146926536731634	
1.7375805827052837E12	-0.12661384463963243	9.903614457831326	0.6131916928789048	-0.12750048365063765	9.778044391121774	0.3992736051646768	13.858436456308986	31.538843796587706	-4.526647162292176	0.004497751124437781	-1.118440779610195	-0.06146926536731634	
1.7375805827102585E12	-0.10203798897218712	9.93975903614458	0.565244680351242	-0.12451540715390823	9.857228554289142	0.36549322143675034	14.18075890120652	30.90939208216001	-4.599626720958276	0.01199400299850075	-1.1244377811094453	-0.05997001499250375	
1.7375805827152332E12	-0.11396450716374146	9.927710843373495	0.5530772223982421	-0.12451540715390823	9.857228554289142	0.36549322143675034	14.492662430648583	29.617359615703162	-5.162108302224292	0.01199400299850075	-1.1244377811094453	-0.05997001499250375	
1.737580582720208E12	-0.17347662824079038	9.927710843373495	0.48019294456096556	-0.1628627822664744	9.94121175764847	0.3198134782197946	14.000160108889142	28.838827232068905	-4.916470306984634	0.01649175412293853	-1.1199400299850075	-0.05697151424287856	
1.7375805827251829E12	-0.25611896641661136	9.987951807228916	0.31069182238402665	-0.1628627822664744	9.94121175764847	0.3198134782197946	13.008680387489695	28.126552923637565	-5.30908009659581	0.01649175412293853	-1.1199400299850075	-0.05697151424287856	
1.7375805827301575E12	-0.35225393123338267	10.036144578313253	0.28563408719369027	-0.25449585303069283	9.982003599280143	0.16705593098037225	11.03225994538903	28.143117442438296	-5.216806177494222	0.008995502248875561	-1.1199400299850075	-0.050974512743628186	
1.7375805827351323E12	-0.44838889605015403	10.096385542168676	0.2605763520033539	-0.25449585303069283	9.982003599280143	0.16705593098037225	9.238307372740119	29.08729501407984	-4.99459638580355	0.008995502248875561	-1.1199400299850075	-0.050974512743628186	
1.7375805827401072E12	-0.532597342675371	10.265060240963855	0.24768607476601737	-0.4328676505284285	10.092381523695261	0.07871739940064179	8.745968341037699	29.600795096902434	-4.7652873962660935	0.01199400299850075	-1.1244377811094453	-0.05697151424287856	
1.7375805827450818E12	-0.5574141381042619	10.289156626506024	0.3197270634382345	-0.4328676505284285	10.092381523695261	0.07871739940064179	9.245029041826871	30.163988736127212	-4.1353697263319535	0.01199400299850075	-1.1244377811094453	-0.05697151424287856	
1.7375805827500566E12	-0.6309007653451523	10.325301204819278	0.4394741248766689	-0.5523158848034013	10.233953209358127	0.1619836166134827	9.648442297936894	30.52840814974325	-3.129068997364657	0.013493253373313342	-1.1304347826086956	-0.05547226386806597	
1.7375805827550312E12	-0.6431886931788748	10.421686746987952	0.4634476311405004	-0.5523158848034013	10.233953209358127	0.1619836166134827	9.98074495708762	30.561537187344705	-2.6686764132030243	0.013493253373313342	-1.1304347826086956	-0.05547226386806597	
1.737580582760006E12	-0.643670572701766	10.397590361445785	0.5116355834296088	-0.601001750579228	10.308338332333532	0.2868080832339214	9.019923303036597	30.51184363094252	-1.5329122332156258	0.004497751124437781	-1.118440779610195	-0.05697151424287856	
1.737580582764981E12	-0.6912561755872605	10.542168674698797	0.4509187635453322	-0.601001750579228	10.308338332333532	0.2868080832339214	6.976282496254642	31.803876097399367	-0.844176118572904	0.004497751124437781	-1.118440779610195	-0.05697151424287856	
1.7375805827699556E12	-0.6801729465607655	10.349397590361447	0.5474151380042719	-0.6113923899895727	10.315536892621475	0.3444462893169765	5.4294161414937365	34.58671525592181	0.7031025428163271	0.01199400299850075	-1.12143928035982	-0.04497751124437781	
1.7375805827749304E12	-0.5863269094777269	10.060240963855422	0.8013656465678733	-0.6113923899895727	10.315536892621475	0.3444462893169765	4.530828990311689	36.32598972999834	1.7409907084942529	0.01199400299850075	-1.12143928035982	-0.04497751124437781	
1.7375805827799053E12	-0.8040159839437743	10.036144578313253	0.8835261052208032	-0.6699978313816778	10.130773845230953	0.61882921342569	4.6798796154792095	35.96157031638231	2.1498638732121815	0.01199400299850075	-1.1199400299850075	-0.04947526236881559	
1.73758058278488E12	-0.769441128176339	9.891566265060241	1.0404983598025739	-0.6699978313816778	10.130773845230953	0.61882921342569	4.928389204019862	34.23886036110651	1.8012021094992725	0.01199400299850075	-1.1199400299850075	-0.04947526236881559	
1.7375805827898547E12	-0.7207712963643395	9.74698795180723	0.9927922870363566	-0.7343512122978686	9.816436712657469	0.8341887904130539	3.315239126529008	35.21616697034951	2.319885203148219	0.014992503748125937	-1.1199400299850075	-0.06896551724137931	
1.7375805827948296E12	-0.683666573101726	9.759036144578314	0.8967777921003081	-0.7343512122978686	9.816436712657469	0.8341887904130539	0.6703935668296344	36.806360775219474	1.8733538836521924	0.014992503748125937	-1.1199400299850075	-0.06896551724137931	
1.7375805827998042E12	-0.6849917417896765	9.698795180722891	1.0292946608953562	-0.7067962323956326	9.64607078584283	0.7266476474952563	-2.3649786916914715	39.90392579095577	2.194653242654052	0.0029985007496251873	-1.118440779610195	-0.05697151424287856	
1.737580582804779E12	-0.7834156343401805	9.566265060240964	1.233129699078285	-0.7067962323956326	9.64607078584283	0.7266476474952563	-3.571847032173209	40.7818452873944	1.9013954072136594	0.0029985007496251873	-1.118440779610195	-0.05697151424287856	
1.737580582809754E12	-0.9401469491605057	9.771084337349398	1.243610578701166	-0.7979482651872878	9.641271745650869	1.0117319660618447	-0.2722652940220826	36.458505880404175	1.1928387437090322	0.0	-1.1109445277361318	-0.05997001499250375	
1.7375805828147285E12	-1.032667817555594	10.132530120481928	0.8571432013425163	-0.7979482651872878	9.641271745650869	1.0117319660618447	4.652536630038614	32.26768262381977	-2.772805423463209	0.0	-1.1109445277361318	-0.05997001499250375	
1.7375805828197034E12	-0.6739085127631815	11.024096385542169	-0.07902824175413783	-1.0523858131643167	10.207558488302338	0.5696370785391542	6.071252190762666	29.965214510518468	-6.818940362637262	-0.0029985007496251873	-1.1124437781109444	-0.05697151424287856	
1.7375805828246782E12	-0.08493126590955362	12.012048192771084	-1.1454276259121077	-1.0523858131643167	10.207558488302338	0.5696370785391542	4.413259050787109	30.130859698525757	-11.004312429399905	-0.0029985007496251873	-1.1124437781109444	-0.05697151424287856	
1.7375805828296528E12	0.5739185117632815	13.253012048192772	-1.9701644293401985	-0.17617882230088563	12.139172165566885	-1.3238533422305467	0.12539337600513203	35.265860526751695	-15.60212473680723	0.008995502248875561	-1.1094452773613193	-0.05547226386806597	
1.7375805828346277E12	1.2018075300903643	13.975903614457833	-2.1084638524099395	-0.17617882230088563	12.139172165566885	-1.3238533422305467	-4.853237940959078	40.61620009938711	-20.036083392606646	0.008995502248875561	-1.1094452773613193	-0.05547226386806597	
1.7375805828396025E12	2.205683046153216	14.0	-1.2911961815866606	1.3558857907332187	13.936412717456507	-2.0610331856216786	-8.764704005700185	41.17939373861189	-25.520411068572553	0.0014992503748125937	-1.1169415292353824	-0.046476761619190406	
1.7375805828445771E12	2.8316445463887345	13.349397590361447	-0.03192451839153433	1.3558857907332187	13.936412717456507	-2.0610331856216786	-8.54955600061557	31.605101871790623	-30.18988232741697	0.0014992503748125937	-1.1169415292353824	-0.046476761619190406	
1.737580582849552E12	2.967775511605466	12.168674698795181	0.8128102852365365	2.71507688391034	13.362927414517095	-0.2746294149165331	-5.556716915674764	11.031969521285406	-32.383438600976895	-0.004497751124437781	-1.118440779610195	-0.05547226386806597	
1.7375805828545269E12	2.5102309046203812	10.759036144578314	0.7841384536245171	2.71507688391034	13.362927414517095	-0.2746294149165331	-5.950066582732153	-6.029484843465297	-31.333311098913338	-0.004497751124437781	-1.118440779610195	-0.05547226386806597	
1.7375805828595015E12	1.7905438371825468	9.855421686746988	0.46368857090194593	2.5623450285039633	10.773845230953809	0.6645037711066886	-8.340082809808877	-14.228921649826072	-31.229085022175198	0.008995502248875561	-1.1154422788605696	-0.050974512743628186	
1.7375805828644763E12	1.135187686050672	9.614457831325302	-0.26575655687443306	2.5623450285039633	10.773845230953809	0.6645037711066886	-10.784015063208937	-18.635083650819944	-30.327437017544202	0.008995502248875561	-1.1154422788605696	-0.050974512743628186	
1.7375805828694512E12	0.8296760685377246	10.156626506024097	-1.03989601039896	1.223288845448676	9.58368326334733	-0.39654388906198235	-13.06891013779675	-17.39274474076528	-26.952784076373913	0.004497751124437781	-1.1154422788605696	-0.05397301349325337	
1.7375805828744258E12	0.9892986604953963	11.060240963855422	-1.3395046037564917	1.223288845448676	9.58368326334733	-0.39654388906198235	-12.716810949632576	-17.757164154381314	-23.87786368911625	0.004497751124437781	-1.1154422788605696	-0.05397301349325337	
1.7375805828794006E12	0.9861664435966042	11.698795180722891	-1.0262829138772869	1.0399217956428213	10.999400119976004	-1.5053276574297405	-12.320206870526789	-14.079840980619512	-20.65925169157829	0.005997001499250375	-1.113943028485757	-0.04947526236881559	
1.7375805828843755E12	1.064712805827851	11.951807228915664	-0.4471841972429263	1.0399217956428213	10.999400119976004	-1.5053276574297405	-13.10106783382934	-7.139307603114129	-19.142833768673796	0.005997001499250375	-1.113943028485757	-0.04947526236881559	
1.73758058288935E12	1.2265038556385326	11.614457831325302	0.24118070120698773	1.1220876511590614	11.964007198560287	-0.6482624655743175	-13.662820394681352	-14.129534537021698	-18.097746136765377	0.01199400299850075	-1.113943028485757	-0.05247376311844078	
1.737580582894325E12	1.064712805827851	11.951807228915664	-0.4471841972429263	1.1220876511590614	11.964007198560287	-0.6482624655743175	-15.045697689945737	-27.000165645188005	-16.10404417541095	0.01199400299850075	-1.113943028485757	-0.05247376311844078	
1.7375805828992998E12	0.824134454024477	10.240963855421688	0.7190847180342207	1.2485251127046448	10.965806838632272	0.5356381292019505	-17.14985771445975	-34.85174755673347	-13.957566992003668	0.005997001499250375	-1.1394302848575713	-0.05847076461769115	
1.7375805829042744E12	0.3339425093635215	9.759036144578314	0.34068882268399664	1.2485251127046448	10.965806838632272	0.5356381292019505	-20.488751866068807	-33.26155375186351	-10.849162550852881	0.005997001499250375	-1.1394302848575713	-0.05847076461769115	
1.7375805829092493E12	-0.18094576084560218	9.566265060240964	0.022286927933712654	0.42740376525767587	9.742051589682063	0.2522135846912659	-22.797450524920993	-27.08298823919165	-8.156938319539451	0.005997001499250375	-1.1229385307346327	-0.04947526236881559	
1.737580582914224E12	-0.6522239342330827	9.55421686746988	0.1621524594528499	0.42740376525767587	9.742051589682063	0.2522135846912659	-22.97884100077945	-23.571310253437137	-5.33182641516368	0.005997001499250375	-1.1229385307346327	-0.04947526236881559	
1.7375805829191987E12	-0.9559285035351887	9.771084337349398	0.4121274619525999	-0.517781434429396	9.557288542291541	-0.06358416767570384	-21.28792054314273	-22.95842305781017	-2.9077925463700187	0.0074962518740629685	-1.1199400299850075	-0.050974512743628186	
1.7375805829241736E12	-1.234093458124067	10.048192771084338	0.5177795473464701	-0.517781434429396	9.557288542291541	-0.06358416767570384	-18.956168256206034	-23.05781017061454	-1.779805313546662	0.0074962518740629685	-1.1199400299850075	-0.050974512743628186	
1.7375805829291484E12	-1.4969587378611535	10.361445783132531	0.29828342466958124	-1.1711276482649864	10.00599880023995	0.2711630137112145	-16.12565043875375	-22.130197117773726	-1.5237769515777941	0.0	-1.1229385307346327	-0.04497751124437781	
1.737580582934123E12	-1.7317545353898345	10.72289156626506	-0.3185223646310068	-1.1711276482649864	10.00599880023995	0.2711630137112145	-13.007263981447228	-17.144276958754347	-0.9581347802388662	0.0	-1.1229385307346327	-0.04497751124437781	
1.737580582939098E12	-1.8939069948426843	10.963855421686748	-0.9707462988640895	-1.6873414149409824	10.673065386922614	-0.4770401074543475	-7.801804651059105	-7.4540334603279765	-0.8302546490666147	0.010494752623688156	-1.1334332833583207	-0.04947526236881559	
1.7375805829440728E12	-1.9147482842077237	11.060240963855422	-1.2962559165770169	-1.6873414149409824	10.673065386922614	-0.4770401074543475	-2.727723803017722	2.3852907073049527	-1.3470683965432504	0.010494752623688156	-1.1334332833583207	-0.04947526236881559	
1.7375805829490474E12	-1.8412616569668334	11.0	-1.4160029780154515	-1.9107738963743035	11.07618476304739	-1.5456007932940536	0.531986135106128	9.11048534040086	-2.6626257617613542	0.0029985007496251873	-1.1244377811094453	-0.043478260869565216	
1.7375805829540222E12	-1.6364628597381226	10.771084337349398	-1.4139549900431643	-1.9107738963743035	11.07618476304739	-1.5456007932940536	1.1970538932829538	12.738114957760477	-4.850871717269329	0.0029985007496251873	-1.1244377811094453	-0.043478260869565216	
1.737580582958997E12	-1.5027412921358467	10.530120481927712	-1.5330997020779848	-1.7010192836978701	10.812237552489501	-1.640721727346686	1.064523206822312	14.609905582242835	-6.911738752675321	0.0014992503748125937	-1.12143928035982	-0.05397301349325337	
1.7375805829639717E12	-1.2839679887432944	10.253012048192772	-1.723683053381409	-1.7010192836978701	10.812237552489501	-1.640721727346686	0.014910590255477058	16.862680139141958	-9.148026866282773	0.0014992503748125937	-1.12143928035982	-0.05397301349325337	
1.7375805829689465E12	-1.0403778899218512	10.024096385542169	-1.9863073933570499	-1.308625690325453	10.320335932813437	-1.8608632897319832	-0.21151224095883417	19.993374192479706	-11.008040835203872	0.004497751124437781	-1.118440779610195	-0.05847076461769115	
1.7375805829739214E12	-0.7365528507390224	9.963855421686748	-2.248329383929077	-1.308625690325453	10.320335932813437	-1.8608632897319832	0.05188486363657832	22.94185853900944	-12.8454542043929	0.004497751124437781	-1.118440779610195	-0.05847076461769115	
1.737580582978896E12	-0.3262324369972641	9.843373493975903	-2.316515336418165	-0.74701055870302	9.94121175764847	-2.343467445911353	1.2188939479146375	24.64800397548451	-14.691845021172774	0.008995502248875561	-1.1229385307346327	-0.06146926536731634	
1.7375805829838708E12	0.035297675051771935	9.686746987951807	-2.3249482280687594	-0.01216475908457542	9.787642471505698	-2.480676595424809	1.235724571416919	25.973165479542818	-16.37490737140092	0.008995502248875561	-1.1229385307346327	-0.06146926536731634	
1.7375805829888457E12	0.34779654564664014	9.493975903614459	-2.2495340827363046	-0.01214460714615686	9.686862627474504	-2.4816841923457367	1.065655598186957	26.81795593837999	-17.744732866168913	0.013493253373313342	-1.1259370314842578	-0.050974512743628186	
1.7375805829938203E12	0.7441424532245571	9.337349397590362	-2.125088695949682	0.6592437440016252	9.365326934613076	-2.3328569460396893	-0.13855734939192746	27.463972171608415	-18.303529991894543	0.013493253373313342	-1.1259370314842578	-0.050974512743628186	
1.7375805829987952E12	0.9362919129773769	9.180722891566266	-2.062926237496732	0.6592437440016252	9.365326934613076	-2.3328569460396893	-1.3240066170644895	27.21550438959748	-19.207301540105398	0.005997001499250375	-1.128935532233883	-0.047976011994003	
1.73758058300377E12	1.1169967340615337	9.060240963855422	-2.0611191892858907	1.1365491199780675	8.98380323935213	-2.179649994284438	-1.3981301582167731	26.304455855557393	-19.451915265612126	0.005997001499250375	-1.128935532233883	-0.047976011994003	
1.7375805830087446E12	1.2852931574312447	8.879518072289157	-2.0232916467389406	1.1365491199780675	8.98380323935213	-2.179649994284438	-1.334056883501602	25.7909557727348	-19.73366846454119	0.005997001499250375	-1.1259370314842578	-0.05547226386806597	
1.7375805830137195E12	1.3821509415323527	8.771084337349398	-2.0705158399822667	1.393587343806625	8.751049790041991	-2.214009222663821	-0.6402120523001394	25.49279443432168	-20.205441018071806	0.005997001499250375	-1.1259370314842578	-0.05547226386806597	
1.7375805830186943E12	1.3470942062420264	8.74698795180723	-2.179300142274929	1.393587343806625	8.751049790041991	-2.214009222663821	-0.9675245471644981	25.277455689912205	-21.16485003087026	0.0014992503748125937	-1.1349325337331333	-0.050974512743628186	
1.737580583023669E12	1.3941979296046298	8.650602409638555	-2.070395370101544	1.4332839137201752	8.609478104379123	-2.2357892194960547	-1.4919376121779027	24.664568494285238	-22.322318414675284	0.0014992503748125937	-1.1349325337331333	-0.050974512743628186	
1.7375805830286438E12	1.273607579001136	8.63855421686747	-2.0595530808364946	1.4332839137201752	8.609478104379123	-2.2357892194960547	-2.2278284103402637	23.090939208216	-23.771523437642852	0.008995502248875561	-1.128935532233883	-0.05697151424287856	
1.7375805830336187E12	1.260476362002354	8.650602409638555	-1.9512506580667235	1.2842312657174684	8.532693461307737	-2.173457050307603	-2.630520929620126	21.3682292529402	-24.849897849625965	0.008995502248875561	-1.128935532233883	-0.05697151424287856	
1.7375805830385933E12	1.1519329994711371	8.63855421686747	-1.9402878989209513	1.2842312657174684	8.532693461307737	-2.173457050307603	-3.699596757699738	19.81116448567169	-26.671258380102746	0.013493253373313342	-1.1319340329835081	-0.04497751124437781	
1.737580583043568E12	0.9950812147700893	8.614457831325302	-1.917760031225793	1.0301893528426374	8.571085782843431	-2.057966487397465	-4.816118883380918	18.767599801225774	-28.34216985486378	0.013493253373313342	-1.1319340329835081	-0.04497751124437781	
1.737580583048543E12	0.8979824909075358	8.674698795180724	-1.8464418618379126	1.0301893528426374	8.571085782843431	-2.057966487397465	-5.746671259027028	16.8295511015405	-28.701939947220566	0.020989505247376312	-1.1424287856071964	-0.05547226386806597	
1.7375805830535176E12	0.7890777187341507	8.783132530120483	-1.799338138475309	0.8383479306276179	8.63107378524295	-1.934717547547177	-6.3664867771820495	14.593341063442105	-27.976130857598992	0.020989505247376312	-1.1424287856071964	-0.05547226386806597	
1.7375805830584924E12	0.6918585249908744	8.783132530120483	-1.7159729810151514	0.8383479306276179	8.63107378524295	-1.934717547547177	-6.559812872727464	12.572469769753187	-27.02024412082181	0.010494752623688156	-1.128935532233883	-0.04947526236881559	
1.7375805830634673E12	0.7033031636595376	8.879518072289157	-1.6556175707730432	0.6995473910756906	8.791841631673664	-1.8076235953549749	-6.308741243476606	11.11479211528905	-26.093716387408318	0.010494752623688156	-1.128935532233883	-0.04947526236881559	
1.737580583068442E12	0.6422249341330927	9.024096385542169	-1.5718910036707172	0.6995473910756906	8.791841631673664	-1.8076235953549749	-7.138552398311329	8.746065926784826	-24.276460015727775	0.0074962518740629685	-1.1334332833583207	-0.05247376311844078	
1.7375805830734167E12	0.4733261613597676	9.27710843373494	-1.5494836058562818	0.6021542837952345	9.034193161367726	-1.6723793167825114	-8.173673085852164	6.178565512671857	-21.83636675934738	0.0074962518740629685	-1.1334332833583207	-0.05247376311844078	
1.7375805830783916E12	0.4734466312404904	9.204819277108435	-1.5615305939285589	0.6021542837952345	9.034193161367726	-1.6723793167825114	-8.64291282323335	3.975484512174921	-19.32280649749181	0.0014992503748125937	-1.1379310344827587	-0.05397301349325337	
1.7375805830833662E12	0.48452986026698536	9.253012048192772	-1.4650342194696193	0.5229677226432803	9.206958608278343	-1.6391482568753284	-9.14721100327054	2.269339075699851	-16.3661891063305	0.0014992503748125937	-1.1379310344827587	-0.05397301349325337	
1.737580583088341E12	0.3879130159273229	9.337349397590362	-1.4419040023708471	0.5229677226432803	9.206958608278343	-1.6391482568753284	-9.633890036347935	0.8779194964386284	-13.640092843001126	0.004497751124437781	-1.1334332833583207	-0.046476761619190406	
1.737580583093316E12	0.30334315965993763	9.397590361445783	-1.4186533153913523	0.4149741889521231	9.338932213557287	-1.551249863310546	-9.9228504419268	-0.44724200761967864	-10.777742943614161	0.004497751124437781	-1.1334332833583207	-0.046476761619190406	
1.7375805830982905E12	0.32575055747437304	9.44578313253012	-1.2497545426180274	0.4149741889521231	9.338932213557287	-1.551249863310546	-10.15641835896295	-1.7558389928772569	-7.329067625910136	0.0014992503748125937	-1.1349325337331333	-0.037481259370314844	
1.7375805831032654E12	0.2879230149274229	9.421686746987952	-1.0814581192483161	0.4176455422095575	9.398920215956808	-1.3383972028566293	-9.714175612154154	-2.451548782507868	-4.080141694232268	0.0014992503748125937	-1.1349325337331333	-0.037481259370314844	
1.7375805831082402E12	0.27575555697442306	9.457831325301205	-1.0695316010567617	0.4176455422095575	9.398920215956808	-1.3383972028566293	-9.222272693168158	-2.4018552261056816	-1.2030522758333566	0.004497751124437781	-1.1319340329835081	-0.05397301349325337	
1.7375805831132148E12	0.2992471837153634	9.542168674698795	-1.0090557209339306	0.3520201473231735	9.43491301739652	-1.1749103684681435	-8.071397405006865	-2.550935895312241	1.626723655357154	0.005997001499250375	-1.1379310344827587	-0.046476761619190406	
1.7375805831181897E12	0.2863569064780269	9.518072289156628	-0.9248472743087137	0.3520201473231735	9.43491301739652	-1.1749103684681435	-6.822661292707154	-2.7000165645188003	3.8587785815882802	0.005997001499250375	-1.1379310344827587	-0.046476761619190406	
1.7375805831231646E12	0.31045088262258114	9.578313253012048	-0.9246063345472681	0.38174128501409266	9.530893821235752	-1.159812518603015	-5.7085887058511195	-2.020871293688918	5.774643938863888	0.020989505247376312	-1.1244377811094453	-0.05397301349325337	
1.7375805831281392E12	0.3590002445538579	9.566265060240964	-0.9602654192412083	0.38174128501409266	9.530893821235752	-1.159812518603015	-4.345224687931552	-0.6460162332284247	7.263663280138425	0.020989505247376312	-1.1244377811094453	-0.05397301349325337	
1.737580583133114E12	0.35972306383819447	9.481927710843374	-1.032547347674871	0.40394748328026764	9.55488902219556	-1.2308614619348612	-2.500223750397204	2.3852907073049527	8.062191272492193	0.013493253373313342	-1.1319340329835081	-0.047976011994003	
1.7375805831380889E12	0.2880434848081457	9.566265060240964	-1.0935051073205933	0.40394748328026764	9.55488902219556	-1.2308614619348612	-1.282548142765312	5.598807354646347	8.806115961064128	0.013493253373313342	-1.1319340329835081	-0.047976011994003	
1.7375805831430635E12	0.25142064106842327	9.481927710843374	-1.045678564673653	0.30952562309146747	9.470905818836233	-1.2441795379451985	-0.0021087395424599503	8.232565843962233	9.399235363128076	0.017991004497751123	-1.1424287856071964	-0.05247376311844078	
1.7375805831480383E12	0.2021484598528099	9.433734939759036	-0.9377375515460502	0.30952562309146747	9.470905818836233	-1.2441795379451985	0.8322901987112398	11.081663077687592	8.654594217696836	0.017991004497751123	-1.1424287856071964	-0.05247376311844078	
1.7375805831530132E12	0.1650437365901964	9.361445783132531	-0.8417230566100017	0.20287188691181535	9.374925014997	-1.1077975788471173	0.904215874926078	12.473082656948815	7.587600868801079	0.005997001499250375	-1.136431784107946	-0.050974512743628186	
1.7375805831579878E12	0.12902324225408784	9.289156626506024	-0.854131454324447	0.20287188691181535	9.374925014997	-1.1077975788471173	1.6167188894282523	13.798244161007121	6.781403553346274	0.005997001499250375	-1.136431784107946	-0.050974512743628186	
1.7375805831629626E12	0.08071482008425664	9.19277108433735	-0.8425663457750611	0.10597692831043905	9.202159568086381	-0.9974607342286501	2.1663608333721496	15.1068411462647	5.415984044102006	0.01199400299850075	-1.1424287856071964	-0.04047976011994003	
1.7375805831679375E12	0.008191951889148435	9.120481927710843	-0.8191951889148434	0.10597692831043905	9.202159568086381	-0.9974607342286501	2.4270088120752376	16.299486499917176	3.853483264145459	0.01199400299850075	-1.1424287856071964	-0.04047976011994003	
1.737580583172912E12	-0.0762574344975141	8.987951807228916	-0.8079914900076257	-0.04679237306844694	9.000599880023994	-0.9802427784483225	2.167078810944907	17.574954447573298	2.281399150532279	0.010494752623688156	-1.1379310344827587	-0.05397301349325337	
1.737580583177887E12	-0.14914171233479062	8.831325301204819	-0.7484793689305768	-0.04679237306844694	9.000599880023994	-0.9802427784483225	2.2307239306176494	17.39274474076528	0.5110678876991048	0.010494752623688156	-1.1379310344827587	-0.05397301349325337	
1.7375805831828618E12	-0.1620319895721271	8.686746987951807	-0.6642709223053598	-0.2082232840961645	8.707858428314337	-0.8763646635520514	2.1067851513824207	17.724035116779856	-0.8775963021011743	0.014992503748125937	-1.1244377811094453	-0.046476761619190406	
1.7375805831878364E12	-0.1992571827154634	8.626506024096386	-0.5562094392970341	-0.2082232840961645	8.707858428314337	-0.8763646635520514	1.7383160656031376	18.00563193639225	-2.315526927848221	0.014992503748125937	-1.1244377811094453	-0.046476761619190406	
1.7375805831928113E12	-0.258407894150344	8.530120481927712	-0.6652346813511419	-0.2586104160687606	8.51109778044391	-0.7819503282016927	0.9067683811540583	17.790293191982773	-3.3874047310260536	0.0014992503748125937	-1.128935532233883	-0.046476761619190406	
1.7375805831977861E12	-0.25901024355395785	8.506024096385543	-0.6049997409897564	-0.2586104160687606	8.51109778044391	-0.7819503282016927	0.7969303635407444	17.061454364750702	-4.6547515148707665	0.0014992503748125937	-1.128935532233883	-0.046476761619190406	
1.7375805832027607E12	-0.30792101512740294	8.46987951807229	-0.5331996920789849	-0.29411233586546986	8.463107378524294	-0.7389559549944038	0.9120494711074998	16.597647838330296	-5.446907294517203	0.005997001499250375	-1.1244377811094453	-0.05247376311844078	
1.7375805832077356E12	-0.32032941284184835	8.46987951807229	-0.49717919774287633	-0.29411233586546986	8.463107378524294	-0.7389559549944038	1.0842060729464158	15.785986417094582	-5.8172382287916555	0.005997001499250375	-1.1244377811094453	-0.05247376311844078	
1.7375805832127104E12	-0.3564703770586797	8.506024096385543	-0.49754060738504463	-0.3280019498638513	8.439112177564487	-0.661103430594966	0.5239482495085339	14.758986251449395	-6.453017906442972	0.005997001499250375	-1.1349325337331333	-0.05247376311844078	
1.737580583217685E12	-0.29647637645873964	8.46987951807229	-0.47284428183687655	-0.3280019498638513	8.439112177564487	-0.661103430594966	-0.7375907960010124	13.81480867980785	-5.873385943543472	0.005997001499250375	-1.1349325337331333	-0.05247376311844078	
1.73758058322266E12	-0.23624143609735412	8.46987951807229	-0.4722419324332627	-0.2404946357278541	8.460707858428314	-0.648478375270112	-1.7808475189225073	13.052840814974324	-5.682476285390912	0.0029985007496251873	-1.1304347826086956	-0.05247376311844078	
1.7375805832276348E12	-0.15203298947213711	8.493975903614459	-0.4593516551959262	-0.2404946357278541	8.460707858428314	-0.648478375270112	-2.7660679532430317	12.191485837336424	-5.169621214747369	0.0029985007496251873	-1.1304347826086956	-0.05247376311844078	
1.7375805832326094E12	0.00433691570601976	8.578313253012048	-0.43369157060197594	-0.05596817773216281	8.508698260347929	-0.6369259863710742	-3.183134437601036	10.899453370879575	-4.810599118916268	0.010494752623688156	-1.1304347826086956	-0.050974512743628186	
1.7375805832375842E12	0.051922518591514345	8.614457831325302	-0.3729747507176993	-0.05596817773216281	8.508698260347929	-0.6369259863710742	-3.3876200588799503	9.773066092430014	-4.2701533769360545	0.010494752623688156	-1.1304347826086956	-0.050974512743628186	
1.737580583242559E12	0.05180204871079157	8.855421686746988	-0.3609277626454222	0.09907050547038324	8.691061787642472	-0.5366661511173144	-3.871187827209745	8.41477555077025	-3.386577156514041	0.0074962518740629685	-1.1424287856071964	-0.04947526236881559	
1.7375805832475337E12	0.1608272907648994	8.843373493975903	-0.4200784740803028	0.09907050547038324	8.691061787642472	-0.5366661511173144	-4.456801936549084	6.940533377505383	-3.0181218121666924	0.0074962518740629685	-1.1424287856071964	-0.04947526236881559	
1.7375805832525085E12	0.20853336353111676	8.819277108433736	-0.3714086422683033	0.22599817337383885	8.799040191961607	-0.5320102853201174	-4.343237357511616	5.499420241841974	-2.1234311707373705	0.0014992503748125937	-1.128935532233883	-0.04497751124437781	
1.7375805832574834E12	0.19660684533956244	8.807228915662652	-0.3835761002213032	0.22599817337383885	8.799040191961607	-0.5320102853201174	-3.581328491073337	3.8264038429683613	-1.7446394072145122	0.0014992503748125937	-1.128935532233883	-0.04497751124437781	
1.737580583262458E12	0.04059834980357386	9.0	-0.44537714903208475	0.17919844726425946	8.885422915416916	-0.6169662431205931	-2.2058280634568135	2.2859035945005797	-1.4692610356356706	0.013493253373313342	-1.1469265367316341	-0.04497751124437781	
1.7375805832674329E12	0.07493226580956362	9.024096385542169	-0.26431091830575976	0.17919844726425946	8.885422915416916	-0.6169662431205931	-1.2534785243756035	0.7785323836342554	-1.7578137186418086	0.013493253373313342	-1.1469265367316341	-0.04497751124437781	
1.7375805832724077E12	0.1216745795299988	9.060240963855422	-0.11926518191554339	0.1206697068948873	8.995800839832032	-0.4618918112570677	-0.6828722184629961	-0.7785323836342554	-2.156882288463025	0.005997001499250375	-1.1334332833583207	-0.043478260869565216	
1.7375805832773823E12	0.1692601824154934	9.10843373493976	-0.05854836203126675	0.1206697068948873	8.995800839832032	-0.4618918112570677	-0.8345207674267824	-2.2196455192976643	-2.30596307355453	0.005997001499250375	-1.1334332833583207	-0.043478260869565216	
1.7375805832823572E12	0.14552761591310748	9.084337349397591	-0.09493026600954363	0.16329136053585278	9.029394121175764	-0.2835056711344409	-1.1357667857193752	-3.677323173761802	-2.809232607235536	0.0074962518740629685	-1.1349325337331333	-0.043478260869565216	
1.737580583287332E12	0.23009747218049278	9.072289156626507	-0.11818095298903844	0.16329136053585278	9.029394121175764	-0.2835056711344409	-1.4859131583511833	-4.70432333940699	-3.0166474114360384	0.0074962518740629685	-1.1349325337331333	-0.043478260869565216	
1.7375805832923066E12	0.25370956880215595	9.084337349397591	-0.06975206093848446	0.23219207634180403	9.031793641271745	-0.26433822817565233	-1.6812307696399658	-5.383468610236872	-3.3930026684689865	0.004497751124437781	-1.1409295352323838	-0.047976011994003	
1.7375805832972815E12	0.2653951472322647	9.120481927710843	-0.03349062684093036	0.23219207634180403	9.031793641271745	-0.26433822817565233	-1.3761417663609332	-5.797581580255093	-3.2740316334319486	0.004497751124437781	-1.1409295352323838	-0.047976011994003	
1.7375805833022563E12	0.27635790637803687	8.987951807228916	0.07505273569028639	0.2596486135275231	8.919016196760648	-0.13601035305052087	-0.3162353757530215	-6.725194633095908	-3.5985144920791625	0.010494752623688156	-1.1349325337331333	-0.046476761619190406	
1.737580583307231E12	0.34767607576591736	8.879518072289157	0.1721514595528399	0.2596486135275231	8.919016196760648	-0.13601035305052087	0.6496260118845039	-6.327646181878416	-3.7068584625698313	0.010494752623688156	-1.1349325337331333	-0.046476761619190406	
1.7375805833122058E12	0.32273881045630376	8.903614457831326	0.25623943629733414	0.2858626039062343	8.791841631673664	0.05444486242500314	1.5123770660421798	-6.079178399867484	-2.692530493957632	-0.0029985007496251873	-1.136431784107946	-0.047976011994003	
1.7375805833171807E12	0.2747917979286409	8.879518072289157	0.23166358062988882	0.2858626039062343	8.791841631673664	0.05444486242500314	2.455883519126646	-5.433162166639058	-2.0967745772894153	-0.0029985007496251873	-1.136431784107946	-0.047976011994003	
1.7375805833221553E12	0.12998700129987	8.867469879518072	0.25431191820576976	0.3048509564290399	8.760647870425913	0.14428820626162914	3.288343879630426	-4.108000662580752	-1.1161643795816851	0.0014992503748125937	-1.128935532233883	-0.046476761619190406	
1.7375805833271301E12	0.27382803888285867	8.867469879518072	0.32803948520810566	0.3048509564290399	8.760647870425913	0.14428820626162914	3.772814938859359	-3.4454199105515984	-0.5586761217704816	0.0014992503748125937	-1.128935532233883	-0.046476761619190406	
1.737580583332105E12	0.21359309852147315	8.891566265060241	0.32743713580449185	0.2580558127662477	8.8374325134973	0.1745765672303402	3.963024306178831	-2.865661752526089	0.3285035321934598	0.013493253373313342	-1.1409295352323838	-0.05547226386806597	
1.7375805833370796E12	0.14179304961070158	8.975903614457831	0.27852636423104676	0.2580558127662477	8.8374325134973	0.1745765672303402	3.9260134852392934	-1.8552261056816297	0.9667984898531764	0.013493253373313342	-1.1409295352323838	-0.05547226386806597	
1.7375805833420544E12	0.07975106103847446	9.072289156626507	0.45862883591158954	0.15033184321097207	9.005398920215956	0.2489967540010513	3.227055441706554	-1.6067583236706973	1.9498922765115676	0.004497751124437781	-1.1319340329835081	-0.046476761619190406	
1.7375805833470293E12	-0.017106723062633496	9.180722891566266	0.5058530291549158	0.15033184321097207	9.005398920215956	0.2489967540010513	2.503913247701668	-1.3914195792612223	2.2886139740904836	0.004497751124437781	-1.1319340329835081	-0.046476761619190406	
1.737580583352004E12	-0.11408497704446423	9.10843373493976	0.5651242104705192	-0.04622896315092357	9.110977804439111	0.3772680189780492	1.9986014261173077	-0.8613549776378996	2.2838083836750296	0.0029985007496251873	-1.136431784107946	-0.05397301349325337	
1.7375805833569788E12	-0.12721619404324627	9.132530120481928	0.6734266332402904	-0.04622896315092357	9.110977804439111	0.3772680189780492	1.310514362527108	-1.1098227596488321	2.1798041760793865	0.0029985007496251873	-1.136431784107946	-0.05397301349325337	
1.7375805833619536E12	-0.21274980935641374	9.012048192771084	0.7930532247980021	-0.1675718233059876	9.038992201559687	0.5552655301954552	0.6684813113814684	-1.1098227596488321	2.064579428468789	-0.0014992503748125937	-1.1379310344827587	-0.05247376311844078	
1.7375805833669282E12	-0.26154011104913605	8.93975903614458	0.8528062856364966	-0.1675718233059876	9.038992201559687	0.5552655301954552	0.013056642599480573	-1.2920324664568494	1.7571228763459699	-0.0014992503748125937	-1.1379310344827587	-0.05247376311844078	
1.737580583371903E12	-0.24961359285758172	8.891566265060241	0.8649737435894964	-0.2785600949576219	8.909418116376724	0.6774273806755522	-0.7573672836261212	-1.7724035116779857	0.6984435234084452	0.008995502248875561	-1.1334332833583207	-0.046476761619190406	
1.737580583376878E12	-0.3093666536960762	8.891566265060241	0.8161834418967742	-0.2785600949576219	8.909418116376724	0.6774273806755522	-1.9979601266266322	-3.064435978134835	-0.8165447645955834	0.008995502248875561	-1.1334332833583207	-0.046476761619190406	
1.7375805833818525E12	-0.2250377371901364	8.91566265060241	0.8170267310618335	-0.2949023737188525	8.883023395320935	0.6862272309772666	-3.997175631964202	-4.836839489812821	-3.038945226244447	0.008995502248875561	-1.1319340329835081	-0.04947526236881559	
1.7375805833868274E12	-0.10408597694447423	8.963855421686748	0.7700434775799528	-0.2949023737188525	8.883023395320935	0.6862272309772666	-6.233276000976149	-6.046049362266026	-4.543762842660758	0.008995502248875561	-1.1319340329835081	-0.04947526236881559	
1.7375805833918022E12	0.06541514523246471	9.072289156626507	0.6874011394041318	-0.08244369877235673	8.950209958008397	0.5713766245300768	-8.266330395477295	-7.818452873944011	-6.445061524245885	0.004497751124437781	-1.1394302848575713	-0.043478260869565216	
1.7375805833967769E12	0.13721519414323627	9.120481927710843	0.736311910977577	-0.08244369877235673	8.950209958008397	0.5713766245300768	-9.930150803679664	-9.773066092430014	-8.516313200180576	0.004497751124437781	-1.1394302848575713	-0.043478260869565216	
1.7375805834017517E12	0.33020794306111556	9.144578313253012	0.7141454529245871	0.2088333316020223	9.084583083383322	0.5571786854878005	-11.052035550023252	-11.297001822097068	-9.650962608700738	0.013493253373313342	-1.1424287856071964	-0.050974512743628186	
1.7375805834067266E12	0.5356090896934402	9.313253012048193	0.6559585005354887	0.2088333316020223	9.084583083383322	0.5571786854878005	-11.79598742088793	-12.68842140135829	-10.294060361436753	0.013493253373313342	-1.1424287856071964	-0.050974512743628186	
1.7375805834117012E12	0.6927018141559338	9.180722891566266	0.6093366566957762	0.5818563019627003	9.178164367126573	0.4972541859296471	-12.034378061837115	-14.179228093423886	-10.95729335687041	0.013493253373313342	-1.1514242878560719	-0.046476761619190406	
1.737580583416676E12	0.9102704187412584	9.253012048192772	0.5392231861151234	0.5818563019627003	9.178164367126573	0.4972541859296471	-11.862977470478501	-14.742421732648666	-11.252023243114584	0.013493253373313342	-1.1514242878560719	-0.046476761619190406	
1.737580583421651E12	0.8140149840437643	9.27710843373494	0.5262124389970642	0.8196775234226579	9.19736052789442	0.3844841060033669	-11.557291939418507	-15.272486334271989	-11.192704986173798	0.01199400299850075	-1.128935532233883	-0.050974512743628186	
1.7375805834266255E12	0.9100294789798129	9.301204819277109	0.5633171622596777	0.8196775234226579	9.19736052789442	0.3844841060033669	-10.552165557801697	-16.92893821434487	-10.633367650151904	0.01199400299850075	-1.128935532233883	-0.050974512743628186	
1.7375805834316003E12	0.9461704431966442	9.216867469879519	0.563678571901846	0.9357760497670219	9.185362927414516	0.35322984421241516	-10.211466908779327	-17.93937386118933	-9.481180485007458	0.005997001499250375	-1.1424287856071964	-0.04497751124437781	
1.7375805834365752E12	0.8020884658522099	9.27710843373494	0.5140449810440643	0.9357760497670219	9.185362927414516	0.35322984421241516	-9.57551605412197	-18.535696538015568	-8.757736088568782	0.005997001499250375	-1.1424287856071964	-0.04497751124437781	
1.7375805834415498E12	0.8619619965714271	9.253012048192772	0.5507882946645094	0.9498093215074858	9.211757648470305	0.34440690384049305	-9.040664695321592	-18.916680470432333	-7.112703515313987	0.005997001499250375	-1.1304347826086956	-0.05247376311844078	
1.7375805834465247E12	0.7781149595883785	9.325301204819278	0.5017570532103416	0.9498093215074858	9.211757648470305	0.34440690384049305	-9.485546446013764	-19.463309590856383	-5.503548354213072	0.005997001499250375	-1.1304347826086956	-0.05247376311844078	
1.7375805834514995E12	0.6692101874149934	9.44578313253012	0.5488607765729451	0.7944365642555532	9.329334133173365	0.37632421216460066	-9.119307300900305	-19.38048699685274	-3.8426236618838567	0.010494752623688156	-1.1379310344827587	-0.04497751124437781	
1.737580583456474E12	0.5372956680235591	9.650602409638555	0.48730066752360907	0.7944365642555532	9.329334133173365	0.37632421216460066	-8.310282314306903	-18.701341726022857	-2.0498696412851407	0.010494752623688156	-1.1379310344827587	-0.04497751124437781	
1.737580583461449E12	0.38152811224901606	9.903614457831326	0.40140564256827327	0.5566278998698049	9.682063587282542	0.25751955616333433	-6.126163144774055	-16.96206725194633	0.05888721859997431	0.004497751124437781	-1.1304347826086956	-0.05247376311844078	
1.7375805834664238E12	0.12866183261191952	10.180722891566266	0.38682878700081796	0.5566278998698049	9.682063587282542	0.25751955616333433	-2.8350362552445323	-14.67616365744575	1.7272089854027053	0.004497751124437781	-1.1304347826086956	-0.05247376311844078	
1.7375805834713984E12	-0.17203098967211713	10.433734939759036	0.33562908769364025	0.0905182814211598	10.195560887822435	0.12189193356094807	1.6236984540330401	-12.721550438959747	3.0206599565734678	0.01199400299850075	-1.1424287856071964	-0.05547226386806597	
1.7375805834763733E12	-0.49693825798143076	10.530120481927712	0.29623543669729413	0.0905182814211598	10.195560887822435	0.12189193356094807	5.642784970189228	-10.568162994864998	3.8685167636192412	0.01199400299850075	-1.1424287856071964	-0.05547226386806597	
1.7375805834813481E12	-0.8591911893148034	10.771084337349398	0.37695025678155075	-0.564067217645996	10.560287942411517	0.05670961209194587	9.592576970659506	-9.358953122411794	3.988857298521089	0.01199400299850075	-1.136431784107946	-0.046476761619190406	
1.7375805834863228E12	-1.1744608671662955	10.626506024096386	0.5786168371114696	-0.564067217645996	10.560287942411517	0.05670961209194587	12.285328392843336	-8.746065926784826	4.23898307401245	0.01199400299850075	-1.136431784107946	-0.046476761619190406	
1.7375805834912976E12	-1.3326378205552938	10.493975903614459	0.7336615736016759	-1.2281965114671498	10.65866826634673	0.35324358721430915	13.742593445555766	-8.282259400364419	3.994866776735758	0.0014992503748125937	-1.1454272863568216	-0.046476761619190406	
1.7375805834962725E12	-1.5874316182839547	10.46987951807229	0.9118365271906544	-1.2281965114671498	10.65866826634673	0.35324358721430915	13.822137076477047	-8.928275633592843	3.6974715253428005	0.0014992503748125937	-1.1454272863568216	-0.046476761619190406	
1.737580583501247E12	-1.6864578602380726	10.457831325301205	1.1759065057349687	-1.592939330419123	10.54109178164367	0.8074746040970207	13.257741649347512	-9.524598310419082	3.4754522168565782	0.01199400299850075	-1.1304347826086956	-0.043478260869565216	
1.737580583506222E12	-1.6297165464176473	10.265060240963855	1.5258715092346187	-1.592939330419123	10.54109178164367	0.8074746040970207	11.56564740016083	-10.535033957263542	2.7001910712066524	0.01199400299850075	-1.1304347826086956	-0.043478260869565216	
1.7375805835111968E12	-1.4634681110202232	10.144578313253012	1.7684978490102796	-1.5706980258458996	10.238752249550089	1.4275109920640316	9.279862512278212	-10.783501739274474	1.5696446374162245	0.01649175412293853	-1.128935532233883	-0.05697151424287856	
1.7375805835161714E12	-1.3069777359613437	10.072289156626507	1.7821109455319528	-1.5706980258458996	10.238752249550089	1.4275109920640316	6.222051142141684	-12.009276130528407	1.072068021666261	0.01649175412293853	-1.128935532233883	-0.05697151424287856	
1.7375805835211462E12	-1.1503668910217413	10.096385542168676	1.783677053981349	-1.3479229649310238	10.017996400719856	1.6051551749576578	1.548609850400979	-13.781679642206393	1.3411589108974957	0.0074962518740629685	-1.1424287856071964	-0.047976011994003	
1.737580583526121E12	-0.9844798652664853	10.132530120481928	2.062444357973841	-1.3479229649310238	10.017996400719856	1.6051551749576578	-3.6365244370436316	-16.581083319529565	0.7121680535209034	0.0074962518740629685	-1.1424287856071964	-0.047976011994003	
1.7375805835310957E12	-0.7702844173413984	10.253012048192772	2.3296465534169473	-1.0038517523359782	10.142771445710856	1.953557593704222	-8.218341006035661	-18.436309425211196	-0.5242454913802846	0.0074962518740629685	-1.143928035982009	-0.04947526236881559	
1.7375805835360706E12	-0.5811467046066477	10.349397590361447	2.692983713676825	-1.0038517523359782	10.142771445710856	1.953557593704222	-13.304992604634686	-20.142454861686268	-1.813143824433412	0.0074962518740629685	-1.143928035982009	-0.04947526236881559	
1.7375805835410454E12	-0.342616340775561	10.46987951807229	2.9363328727368225	-0.6107860829930035	10.317936412717456	2.6235997616594133	-16.945348831815263	-22.825906907404338	-2.249190325365168	0.01649175412293853	-1.143928035982009	-0.04947526236881559	
1.73758058354602E12	-0.10143563956857327	10.46987951807229	2.914648294206724	-0.6107860829930035	10.317936412717456	2.6235997616594133	-17.972226329833628	-24.035116779857542	-2.164809589378428	0.01649175412293853	-1.143928035982009	-0.04947526236881559	
1.7375805835509949E12	0.10721819384326628	10.734939759036145	2.5311926638661433	-0.12057764465891893	10.526694661067786	2.709020801075277	-16.22586093936158	-22.030810004969354	-0.6910882996764747	0.017991004497751123	-1.1274362818590704	-0.047976011994003	
1.7375805835559697E12	0.10300174801796928	11.373493975903616	1.7480179692874085	-0.12057764465891893	10.526694661067786	2.709020801075277	-13.869263670557284	-17.442438297167467	2.5465814508279445	0.017991004497751123	-1.1274362818590704	-0.047976011994003	
1.7375805835609443E12	0.04312821729875205	12.144578313253012	0.5064553785585297	0.1828068140195926	11.392921415716856	1.3966108001751039	-11.29270734066574	-9.83932416763293	8.290642182959822	0.008995502248875561	-1.1394302848575713	-0.05247376311844078	
1.7375805835659192E12	-0.3290032442538879	13.253012048192772	-0.8346153336473582	0.1828068140195926	11.392921415716856	1.3966108001751039	-5.760765347596966	3.693887692562531	15.586488817889437	0.008995502248875561	-1.1394302848575713	-0.05247376311844078	
1.737580583570894E12	-1.0044778654664654	14.506024096385543	-1.9618520075703272	-0.31091768683440374	13.454109178164366	-1.2843696998502532	5.552205509464047	20.6228259069074	23.646217813166498	0.01199400299850075	-1.128935532233883	-0.050974512743628186	
1.7375805835758687E12	-1.6233316427393405	15.542168674698797	-2.727076689921369	-0.31091768683440374	13.454109178164366	-1.2843696998502532	21.747333187328692	34.271989398707966	32.00481296697747	0.01199400299850075	-1.128935532233883	-0.050974512743628186	
1.7375805835808435E12	-2.0322064179124255	15.879518072289157	-2.8034545942996063	-1.4558754509253344	15.61367726454709	-3.158883342878777	40.87748257377524	34.33824747391088	47.01437661941338	0.01649175412293853	-1.136431784107946	-0.05397301349325337	
1.7375805835858184E12	-2.4475865666445404	15.807228915662652	-2.229295142774879	-1.4558754509253344	15.61367726454709	-3.158883342878777	53.164735949613544	18.93324498923306	63.31200993910545	0.01649175412293853	-1.136431784107946	-0.05397301349325337	
1.737580583590793E12	-3.1801639113197115	15.566265060240964	-1.2607173017637996	-2.2129667612923116	15.7624475104979	-2.486765861481416	42.10882322264556	2.1202584064932912	70.89409427449415	0.0029985007496251873	-1.1349325337331333	-0.05397301349325337	
1.7375805835957678E12	-3.532417842553094	14.903614457831326	0.22973606253832446	-2.2129667612923116	15.7624475104979	-2.486765861481416	19.389466159188892	3.958919993374192	61.053384081110785	0.0029985007496251873	-1.1349325337331333	-0.05397301349325337	
1.7375805836007427E12	-2.808755269051408	13.734939759036145	1.3574546159841847	-3.595632126091486	14.881823635272944	0.48022062328097265	1.1180628113976607	22.54431008779195	41.33307567493533	0.01199400299850075	-1.1259370314842578	-0.05697151424287856	
1.7375805836057173E12	-1.8111441867861406	12.457831325301205	1.5963463894574397	-3.595632126091486	14.881823635272944	0.48022062328097265	-6.121462723289386	49.428524101374855	37.87368427380845	0.01199400299850075	-1.1259370314842578	-0.05697151424287856	
1.7375805836106921E12	-1.417328146703402	11.590361445783133	0.7689592486534479	-1.8483022053596574	12.407918416316736	1.566380475835061	-11.332034235106775	59.5660096074209	35.194235149268806	0.010494752623688156	-1.128935532233883	-0.05697151424287856	
1.737580583615667E12	-1.3923908813937884	11.024096385542169	-0.51994800519948	-1.8483022053596574	12.407918416316736	1.566380475835061	-18.071566027827366	54.56352492960079	26.145883027759496	0.010494752623688156	-1.128935532233883	-0.05697151424287856	
1.7375805836206416E12	-1.2019279999710872	10.46987951807229	-1.4939469908430842	-1.479735905560832	10.980203959208158	-0.6956527589098936	-25.24552199482739	38.46281265529236	16.129534857930327	0.005997001499250375	-1.1199400299850075	-0.047976011994003	
1.7375805836256165E12	-0.6699330066993301	9.771084337349398	-1.6813981252477161	-1.479735905560832	10.980203959208158	-0.6956527589098936	-31.006186584736668	19.91055159847606	8.735044384845825	0.005997001499250375	-1.1199400299850075	-0.047976011994003	
1.7375805836305913E12	-0.07276380795655374	9.253012048192772	-1.1573541441036619	-0.7307472829238498	9.737252549490101	-1.7709499415673249	-33.78894359382049	10.783501739274474	3.70293518603118	0.0	-1.1424287856071964	-0.04497751124437781	
1.737580583635566E12	0.5144063906862326	9.072289156626507	-0.8382294300690413	-0.7307472829238498	9.737252549490101	-1.7709499415673249	-38.293909786930094	6.84114626470101	-0.6243352426718173	0.0	-1.1424287856071964	-0.04497751124437781	
1.7375805836405408E12	1.0225483475748811	9.216867469879519	-1.0500154803796728	0.48981669878978823	9.029394121175764	-0.9053845930690875	-45.57608981347142	-1.9877422560874605	-4.412458162811581	0.0014992503748125937	-1.1199400299850075	-0.046476761619190406	
1.7375805836455156E12	1.583094702577935	9.650602409638555	-1.6829642336971122	0.48981669878978823	9.029394121175764	-0.9053845930690875	-52.70063939558078	-14.063276461818782	-7.118296276531558	0.0014992503748125937	-1.1199400299850075	-0.046476761619190406	
1.7375805836504902E12	1.976187923376337	10.301204819277109	-2.4380694460674412	1.577250919898645	9.694061187762447	-1.8128924152555692	-54.63434059120723	-23.886036110650984	-8.23515986855739	-0.0014992503748125937	-1.136431784107946	-0.04497751124437781	
1.737580583655465E12	2.3918090118698974	10.74698795180723	-3.0363228737367227	1.577250919898645	9.694061187762447	-1.8128924152555692	-49.19612239079351	-29.07073049527911	-8.412263217738676	-0.0014992503748125937	-1.136431784107946	-0.04497751124437781	
1.73758058366044E12	2.5985353271901723	11.265060240963855	-3.2270266949208692	2.4938592398082156	10.781043791241752	-3.3015070250528225	-38.787379059370714	-26.834520457180716	-4.876182883755419	0.0074962518740629685	-1.1559220389805096	-0.047976011994003	
1.7375805836654146E12	2.813574064280319	11.66265060240964	-3.0441534159837027	2.4938592398082156	10.781043791241752	-3.3015070250528225	-27.112176798975007	-22.54431008779195	0.6510642772862103	0.0074962518740629685	-1.1559220389805096	-0.047976011994003	
1.7375805836703894E12	2.764422352945428	11.855421686746988	-2.948259390928377	2.965641416411541	11.656868626274743	-3.449507310184441	-17.41885133433184	-20.705648500911046	6.8162207226175475	-0.004497751124437781	-1.1394302848575713	-0.04497751124437781	
1.7375805836753643E12	2.511556073308332	11.783132530120483	-2.9628362464958324	2.965641416411541	11.656868626274743	-3.449507310184441	-13.691634441782094	-21.93142289216498	12.348742799955154	-0.004497751124437781	-1.1394302848575713	-0.04497751124437781	
1.7375805836803389E12	2.162554828854464	11.3855421686747	-3.002470837253624	2.6857802707087934	11.73365326934613	-3.1977895169639265	-13.823137248913113	-25.21119761470929	17.84205567232206	-0.0074962518740629685	-1.143928035982009	-0.04947526236881559	
1.7375805836853137E12	1.7051306917501021	10.74698795180723	-3.0431896569379204	2.6857802707087934	11.73365326934613	-3.1977895169639265	-14.548930039645969	-26.122246148749376	23.040017747138922	-0.0074962518740629685	-1.143928035982009	-0.04947526236881559	
1.7375805836902886E12	1.187833023926523	10.204819277108435	-3.1206517902426625	1.8544581830876865	10.74745050989802	-3.2021239349847916	-12.713417791488629	-25.592181547126053	27.850201813487615	0.01199400299850075	-1.1559220389805096	-0.04947526236881559	
1.7375805836952632E12	0.6219859941716672	9.951807228915664	-3.162454838853464	1.8544581830876865	10.74745050989802	-3.2021239349847916	-10.060658230896033	-25.741262216332615	32.09951374810247	0.01199400299850075	-1.1559220389805096	-0.04947526236881559	
1.737580583700238E12	0.2234716287407404	9.795180722891567	-3.0700544403390984	0.7795496781545793	9.902819436112777	-3.3827956860199566	-6.98777170936979	-25.95660096074209	35.68375592932204	-0.0014992503748125937	-1.1379310344827587	-0.043478260869565216	
1.737580583705213E12	-0.06830642236981121	9.650602409638555	-2.8079119798863488	0.7795496781545793	9.902819436112777	-3.3827956860199566	-4.109368341545284	-27.447407652807684	37.276803526657105	-0.0014992503748125937	-1.1379310344827587	-0.043478260869565216	
1.7375805837101875E12	-0.1913061705877605	9.481927710843374	-2.556129929175757	0.05954281646858924	9.540491901619676	-3.063745904260871	-2.1214391030242634	-27.463972171608415	37.56504353366675	-0.004497751124437781	-1.136431784107946	-0.041979010494752625	
1.7375805837151624E12	-0.3359904973358086	9.349397590361447	-2.5455285796721534	0.05954281646858924	9.540491901619676	-3.063745904260871	-0.5385366600502505	-27.79526254762299	37.00833675540789	-0.004497751124437781	-1.136431784107946	-0.041979010494752625	
1.7375805837201372E12	-0.5042869207055198	9.265060240963855	-2.5833561222191035	-0.3412896250087482	9.288542291541692	-2.7680822599552015	-0.18784332893761443	-27.414278615206225	35.62966214337859	-0.005997001499250375	-1.1304347826086956	-0.046476761619190406	
1.7375805837251118E12	-0.745226682151062	9.325301204819278	-2.5857655198335587	-0.3412896250087482	9.288542291541692	-2.7680822599552015	-1.049053217850794	-25.52592347192314	34.461217650316755	-0.005997001499250375	-1.1304347826086956	-0.046476761619190406	
1.7375805837300867E12	-0.8920794667521199	9.313253012048193	-2.358318385028967	-0.7106324727082194	9.271745650869825	-2.661217011240299	-1.2265033205333982	-25.012423389100544	32.298111532666	0.0	-1.1319340329835081	-0.043478260869565216	
1.7375805837350615E12	-1.0618215286905044	9.481927710843374	-2.251582070708592	-0.7106324727082194	9.271745650869825	-2.661217011240299	-1.3695445042019574	-24.34984263707139	29.756900649904757	0.0	-1.1319340329835081	-0.043478260869565216	
1.7375805837400361E12	-0.9908647689447923	9.493975903614459	-2.1183423826292067	-1.0687908140990066	9.456508698260347	-2.4207364313083293	-0.08020344132349025	-24.018552261056815	27.928460518260195	-0.005997001499250375	-1.1334332833583207	-0.050974512743628186	
1.737580583745011E12	-1.0279694922074059	9.578313253012048	-2.0223278876931583	-1.0687908140990066	9.456508698260347	-2.4207364313083293	0.14049314643956223	-24.581745900281597	27.298311696013144	-0.005997001499250375	-1.1334332833583207	-0.050974512743628186	
1.7375805837499858E12	-0.9796610700375745	9.650602409638555	-2.0338929962425443	-0.9924724263349242	9.569286142771444	-2.195085380713375	-0.8962723746436371	-25.476229915520953	25.308707602189124	0.0	-1.1319340329835081	-0.047976011994003	
1.7375805837549604E12	-0.7890777187341507	9.578313253012048	-1.815119692849992	-0.9924724263349242	9.569286142771444	-2.195085380713375	-1.3851209464202447	-25.36027828391585	22.12618346285142	0.0	-1.1319340329835081	-0.047976011994003	
1.7375805837599353E12	-0.5837970419825487	9.566265060240964	-1.8612596571668134	-0.8408075720710582	9.540491901619676	-2.0416075396341564	-2.0463109396613177	-25.50935895312241	19.33247222034309	-0.0029985007496251873	-1.1424287856071964	-0.047976011994003	
1.7375805837649102E12	-0.3062344367972841	9.542168674698795	-1.9066768021992981	-0.8408075720710582	9.540491901619676	-2.0416075396341564	-2.6208317102258527	-24.879907238694713	17.06020011906306	-0.0029985007496251873	-1.1424287856071964	-0.047976011994003	
1.7375805837698848E12	0.030237940061415548	9.55421686746988	-1.8189747290331209	-0.35387137693652254	9.478104379124174	-2.0235212224579393	-2.796784697033755	-24.714262050687427	14.747382413942095	0.0074962518740629685	-1.143928035982009	-0.043478260869565216	
1.7375805837748596E12	0.2574441351045618	9.686746987951807	-1.6480279682875085	-0.35387137693652254	9.478104379124174	-2.0235212224579393	-3.3236644136472373	-23.621003809839323	12.305185621997829	0.0074962518740629685	-1.143928035982009	-0.043478260869565216	
1.7375805837798345E12	0.4009237630453822	9.951807228915664	-1.5381594370683414	0.2304170400028623	9.648470305938812	-1.792214586748196	-3.2587489523101136	-22.908729501407983	8.876426624579471	0.025487256371814093	-1.1469265367316341	-0.05397301349325337	
1.737580583784809E12	0.43586002845498584	10.168674698795181	-1.417328146703402	0.2304170400028623	9.648470305938812	-1.792214586748196	-1.8039405001542816	-21.865164816962064	5.815183246668598	0.025487256371814093	-1.1469265367316341	-0.05397301349325337	
1.737580583789784E12	0.4712781733874805	10.337349397590362	-1.344684808627571	0.39238067470428567	10.085182963407318	-1.5763085620041206	0.10275837577032483	-20.606261388106674	1.9753109681436274	0.0029985007496251873	-1.1379310344827587	-0.05397301349325337	
1.7375805837947588E12	0.48260234217542103	10.493975903614459	-1.2722824103131856	0.39238067470428567	10.085182963407318	-1.5763085620041206	1.5961265995971	-19.97680967367898	-1.8791224405675768	0.0029985007496251873	-1.1379310344827587	-0.05397301349325337	
1.7375805837997334E12	0.4936855712019159	10.421686746987952	-1.1757860358542458	0.41559266173517523	10.411517696460708	-1.4667000613546042	3.4088578151057796	-19.628954778863672	-5.510590086381943	0.0029985007496251873	-1.12143928035982	-0.043478260869565216	
1.7375805838047083E12	0.5769302587813507	10.168674698795181	-1.0665198540386924	0.41559266173517523	10.411517696460708	-1.4667000613546042	5.188923323564936	-19.314228921649825	-8.938274163537944	0.0029985007496251873	-1.12143928035982	-0.043478260869565216	
1.737580583809683E12	0.5281399570886285	9.867469879518072	-1.006766793200198	0.5084175532213744	10.190761847630473	-1.2580601091056685	7.036458490716971	-18.81729335762796	-11.455956269246801	0.0029985007496251873	-1.136431784107946	-0.050974512743628186	
1.7375805838146577E12	0.3117760513105316	9.566265060240964	-1.0571232033423164	0.5084175532213744	10.190761847630473	-1.2580601091056685	9.259792647680142	-18.784164320026502	-13.268698152393801	0.0029985007496251873	-1.136431784107946	-0.050974512743628186	
1.7375805838196326E12	0.13179404951071158	9.204819277108435	-1.1312121799868207	0.35324062295953246	9.559688062387522	-1.2359341502860914	10.537154137207594	-18.568825575617026	-13.899180948937131	0.0	-1.1349325337331333	-0.046476761619190406	
1.7375805838246074E12	-0.06119869940716771	8.927710843373495	-1.1090457219338308	0.005718184961227637	8.945410917816435	-1.2963018577611507	11.188846895406636	-18.65164816962067	-14.749926906666527	0.0	-1.1349325337331333	-0.046476761619190406	
1.737580583829582E12	-0.21793001422749292	8.686746987951807	-1.0985648423109495	0.005725382082091408	8.909418116376724	-1.2966617138043393	10.771947013346963	-18.68477720722213	-14.407565040668818	-0.005997001499250375	-1.128935532233883	-0.04497751124437781	
1.737580583834557E12	-0.446822787600758	8.542168674698795	-1.1008537700446823	-0.37075193994234446	8.532693461307737	-1.294966513275389	10.411078045743732	-17.773728673182042	-13.542720347727139	-0.005997001499250375	-1.128935532233883	-0.04497751124437781	
1.7375805838395317E12	-0.615239680851192	8.457831325301205	-1.1266343245193553	-0.37075193994234446	8.532693461307737	-1.294966513275389	10.315694914481616	-17.690906079178397	-13.192768630397426	-0.0029985007496251873	-1.128935532233883	-0.050974512743628186	
1.7375805838445063E12	-0.795221682651012	8.506024096385543	-1.2007233011638594	-0.7188445631309629	8.463107378524294	-1.3268249612347636	10.873616310415326	-16.69703495113467	-12.323346202328928	-0.0029985007496251873	-1.128935532233883	-0.050974512743628186	
1.7375805838494812E12	-0.903644575301506	8.578313253012048	-1.2018075300903643	-0.7188445631309629	8.463107378524294	-1.3268249612347636	11.398283752121829	-15.703163823090938	-11.191315487833783	0.0074962518740629685	-1.128935532233883	-0.05397301349325337	
1.737580583854456E12	-0.9517120577098916	8.710843373493976	-1.2143363976855326	-0.9116364002762867	8.635872825434912	-1.3870021570863609	11.801241745823011	-15.173099221467615	-10.139488517982725	0.0074962518740629685	-1.128935532233883	-0.05397301349325337	
1.7375805838594307E12	-0.9761674434966142	8.759036144578314	-1.1784363732301468	-0.9116364002762867	8.635872825434912	-1.3870021570863609	11.78505004335083	-14.11297001822097	-8.520318270764658	0.0014992503748125937	-1.1379310344827587	-0.04947526236881559	
1.7375805838644055E12	-1.0358000344543858	8.74698795180723	-1.2392736629951462	-0.8734163049041725	8.727054589082183	-1.3349584268468015	11.429174437955739	-12.39026006294517	-6.623416230489614	0.0014992503748125937	-1.1379310344827587	-0.04947526236881559	
1.7375805838693804E12	-0.892561346275011	8.698795180722891	-1.1053111556314248	-0.8734163049041725	8.727054589082183	-1.3349584268468015	10.516274598159818	-10.83319529567666	-4.15425920342446	0.017991004497751123	-1.1529235382308844	-0.06446776611694152	
1.737580583874355E12	-0.8931636956786249	8.566265060240964	-1.0450762152700392	-0.8158360284545099	8.542291541691661	-1.2116627805077669	9.673987148096845	-9.375517641212522	-2.6207668770658086	0.017991004497751123	-1.1529235382308844	-0.06446776611694152	
1.7375805838793298E12	-0.8697925388184073	8.3855421686747	-0.972553347074931	-0.8158360284545099	8.542291541691661	-1.2116627805077669	9.785606963566135	-7.4540334603279765	-1.5315998788188663	0.008995502248875561	-1.1304347826086956	-0.05397301349325337	
1.7375805838843047E12	-0.8577455507461302	8.25301204819277	-0.9724328771942082	-0.7894993407821337	8.249550089982003	-1.1428158708240337	9.815059221503759	-4.969355640218652	0.11735503185997878	0.008995502248875561	-1.1304347826086956	-0.05397301349325337	
1.7375805838892793E12	-0.7979924899076357	8.072289156626507	-0.923642575501486	-0.7894993407821337	8.249550089982003	-1.1428158708240337	10.595495323391386	-2.6834520457180715	1.7062103867419618	0.010494752623688156	-1.1409295352323838	-0.05547226386806597	
1.7375805838942542E12	-0.7616105859293588	8.108433734939759	-0.9473751420038719	-0.7802729741628144	8.067186562687462	-1.1422404373558148	11.309091416780216	-1.027000165645188	2.3220987507686655	0.010494752623688156	-1.1409295352323838	-0.05547226386806597	
1.737580583899229E12	-0.8461804421967442	8.036144578313253	-0.924124455024377	-0.7802729741628144	8.067186562687462	-1.1422404373558148	10.726303109999744	-0.04969355640218651	2.4079738392292156	0.013493253373313342	-1.1379310344827587	-0.05547226386806597	
1.7375805839042036E12	-0.70209846485231	8.0	-0.8744908641665954	-0.7150867283265432	7.947210557888422	-1.0528229370215672	9.824544141361281	1.6730163988736126	2.231650182401745	0.013493253373313342	-1.1379310344827587	-0.05547226386806597	
1.7375805839091785E12	-0.5705453551030439	8.012048192771084	-0.776789790900428	-0.7150867283265432	7.947210557888422	-1.0528229370215672	7.912982128739982	3.5613715421567003	1.9636554261549155	0.0014992503748125937	-1.1304347826086956	-0.05247376311844078	
1.7375805839141533E12	-0.4982634266693812	7.91566265060241	-0.7760669716160914	-0.46297228391350803	7.8728254349130165	-0.9564666357333729	7.29456546377259	3.859532880569819	1.0181856288665823	0.0014992503748125937	-1.1304347826086956	-0.05247376311844078	
1.737580583919128E12	-0.42646337775860965	7.879518072289157	-0.7271562000426464	-0.46297228391350803	7.8728254349130165	-0.9564666357333729	7.598671072925085	4.505549113798244	1.2354960765572855	0.004497751124437781	-1.1394302848575713	-0.050974512743628186	
1.7375805839241028E12	-0.3903224135417783	7.843373493975904	-0.726794790400478	-0.4086026393242352	7.800839832033593	-0.9035862785919376	8.746297429714595	4.522113632598972	-0.20401555951441191	0.004497751124437781	-1.1394302848575713	-0.050974512743628186	
1.7375805839290776E12	-0.3659874976357786	7.855421686746988	-0.7506478267835867	-0.4086026393242352	7.800839832033593	-0.9035862785919376	9.827751404654927	4.108000662580752	-1.151863283256814	0.017991004497751123	-1.1304347826086956	-0.06146926536731634	
1.7375805839340522E12	-0.3651442084707192	7.879518072289157	-0.8349767432895264	-0.32599228389301593	7.820035992801439	-0.9925336113538223	10.701139430626286	4.737452377008448	-1.2012324960128846	0.017991004497751123	-1.1304347826086956	-0.06146926536731634	
1.737580583939027E12	-0.3763479073779369	7.867469879518072	-0.919426129676189	-0.32599228389301593	7.820035992801439	-0.9925336113538223	11.433778422424375	5.6319363922478045	-0.9582404047652051	0.01649175412293853	-1.1304347826086956	-0.050974512743628186	
1.737580583944002E12	-0.3267143165201552	7.891566265060241	-1.0635081070206232	-0.331445428325841	7.817636472705458	-1.181770154146746	12.172731962718947	6.261388106675501	-1.3467031631657753	0.01649175412293853	-1.1304347826086956	-0.050974512743628186	
1.7375805839489766E12	-0.3151492079707692	7.879518072289157	-1.015199684850792	-0.331445428325841	7.817636472705458	-1.181770154146746	12.95474644471296	6.360775219479874	-1.4470793870694907	-0.0029985007496251873	-1.1244377811094453	-0.05547226386806597	
1.7375805839539514E12	-0.26816595448888847	7.819277108433735	-0.8942479246051298	-0.2511861041527832	7.829634073185362	-1.1531659240005625	11.590313961077491	6.460162332284247	-1.2978585886066971	-0.0029985007496251873	-1.1244377811094453	-0.05547226386806597	
1.7375805839589263E12	-0.13601049533600856	7.903614457831326	-0.8567817917003481	-0.2511861041527832	7.829634073185362	-1.1531659240005625	9.162532883046406	5.350339572635415	-0.4799345527265102	0.017991004497751123	-1.1484257871064467	-0.06146926536731634	
1.737580583963901E12	-0.1733561583600676	8.0	-0.7366733206197452	-0.14498900574710566	7.94241151769646	-0.9202956710742782	6.948221663343563	4.2902103693887685	0.4305136043879931	0.017991004497751123	-1.1484257871064467	-0.06146926536731634	
1.7375805839688757E12	-0.13866083271190954	8.084337349397591	-0.5917480541102517	-0.14498900574710566	7.94241151769646	-0.9202956710742782	5.976211948711063	2.931919827729004	-0.37770329377086687	0.0014992503748125937	-1.1394302848575713	-0.05247376311844078	
1.7375805839738506E12	-0.04204398837224711	8.096385542168676	-0.6148782712090237	-0.13832498183907327	8.11757648470306	-0.7916031020417178	5.444335994896961	2.368726188504224	-0.7888827975061803	0.0014992503748125937	-1.1394302848575713	-0.05247376311844078	
1.7375805839788252E12	-0.11480779632880085	8.19277108433735	-0.5674131382042519	-0.13832498183907327	8.11757648470306	-0.7916031020417178	5.633262495342261	1.5901938048699684	-1.3048100242720402	0.005997001499250375	-1.136431784107946	-0.05247376311844078	
1.7375805839838E12	-0.1750427366901864	8.27710843373494	-0.5680154876078657	-0.12967174456100933	8.263947210557888	-0.7623712015107349	5.851503966482286	0.28159681961239025	-0.1580536160693744	0.005997001499250375	-1.136431784107946	-0.05247376311844078	
1.737580583988775E12	-0.28346562934068037	8.44578313253012	-0.5690997165343706	-0.12967174456100933	8.263947210557888	-0.7623712015107349	6.689717677803734	-0.7950969024349842	1.7786150680186341	0.0	-1.136431784107946	-0.05547226386806597	
